	trialNo	RT	ACC	literate	number	visual_noise	learn_trial	category	item	trial	pp	subject
11	1.0	3.216228252	1.0	low	1	no_noise	learn	bikes	bikes_1.0	0	low_1	01
12	2.0	11.06114314	1.0	low	1	no_noise	learn	bikes	bikes_2.0	1	low_1	01
13	3.0	4.828617183	1.0	low	1	no_noise	learn	bikes	bikes_3.0	2	low_1	01
18	4.0	7.58054357	0.0	low	1	no_noise	learn	bikes	bikes_4.0	3	low_1	01
19	5.0	4.3360463760000005	1.0	low	1	no_noise	learn	bikes	bikes_5.0	4	low_1	01
20	6.0	5.1418844560000005	0.0	low	1	no_noise	learn	bikes	bikes_6.0	5	low_1	01
25	7.0	5.9155254489999995	1.0	low	1	no_noise	learn	bikes	bikes_7.0	6	low_1	01
26	8.0	4.828939328	1.0	low	1	no_noise	learn	bikes	bikes_8.0	7	low_1	01
27	9.0	3.687132268	1.0	low	1	no_noise	learn	bikes	bikes_9.0	8	low_1	01
32	10.0	2.934541735	1.0	low	1	no_noise	learn	bikes	bikes_10.0	9	low_1	01
33	11.0	2.70681189	1.0	low	1	no_noise	learn	bikes	bikes_11.0	10	low_1	01
34	12.0	4.1248346730000005	1.0	low	1	no_noise	learn	bikes	bikes_12.0	11	low_1	01
39	13.0	6.185225737000001	0.0	low	1	no_noise	learn	bikes	bikes_13.0	12	low_1	01
40	14.0	6.657744125	1.0	low	1	no_noise	learn	bikes	bikes_14.0	13	low_1	01
41	15.0	4.194215814	1.0	low	1	no_noise	learn	bikes	bikes_15.0	14	low_1	01
46	16.0	2.837726393	1.0	low	1	no_noise	learn	bikes	bikes_16.0	15	low_1	01
47	17.0	3.4708181110000003	1.0	low	1	no_noise	learn	bikes	bikes_17.0	16	low_1	01
48	18.0	5.449784264	1.0	low	1	no_noise	learn	bikes	bikes_18.0	17	low_1	01
51	19.0	6.921711446000001	1.0	low	1	no_noise	no_learn	bikes	bikes_19.0	18	low_1	01
52	46.0	5.511796184	1.0	low	1	no_noise	no_learn	bikes	bikes_46.0	19	low_1	01
53	36.0	3.03319756	1.0	low	1	no_noise	no_learn	bikes	bikes_36.0	20	low_1	01
54	31.0	3.280086732	0.0	low	1	no_noise	no_learn	bikes	bikes_31.0	21	low_1	01
55	30.0	3.559780812	1.0	low	1	no_noise	no_learn	bikes	bikes_30.0	22	low_1	01
56	43.0	4.614388662	0.0	low	1	no_noise	no_learn	bikes	bikes_43.0	23	low_1	01
57	21.0	2.425017586	1.0	low	1	no_noise	no_learn	bikes	bikes_21.0	24	low_1	01
58	25.0	2.676718675	0.0	low	1	no_noise	no_learn	bikes	bikes_25.0	25	low_1	01
59	48.0	3.3989145130000002	1.0	low	1	no_noise	no_learn	bikes	bikes_48.0	26	low_1	01
60	27.0	4.2731839119999995	0.0	low	1	no_noise	no_learn	bikes	bikes_27.0	27	low_1	01
61	40.0	3.698875774	0.0	low	1	no_noise	no_learn	bikes	bikes_40.0	28	low_1	01
62	29.0	6.252783415	0.0	low	1	no_noise	no_learn	bikes	bikes_29.0	29	low_1	01
63	47.0	12.15812746	0.0	low	1	no_noise	no_learn	bikes	bikes_47.0	30	low_1	01
64	37.0	4.189080537	1.0	low	1	no_noise	no_learn	bikes	bikes_37.0	31	low_1	01
65	33.0	5.417953086	1.0	low	1	no_noise	no_learn	bikes	bikes_33.0	32	low_1	01
66	20.0	5.914074378	1.0	low	1	no_noise	no_learn	bikes	bikes_20.0	33	low_1	01
67	39.0	3.3256400760000004	1.0	low	1	no_noise	no_learn	bikes	bikes_39.0	34	low_1	01
68	42.0	3.001082732	1.0	low	1	no_noise	no_learn	bikes	bikes_42.0	35	low_1	01
69	26.0	3.4554264630000002	1.0	low	1	no_noise	no_learn	bikes	bikes_26.0	36	low_1	01
70	32.0	3.839472055	1.0	low	1	no_noise	no_learn	bikes	bikes_32.0	37	low_1	01
71	41.0	3.7566718480000003	1.0	low	1	no_noise	no_learn	bikes	bikes_41.0	38	low_1	01
72	34.0	3.788309739	1.0	low	1	no_noise	no_learn	bikes	bikes_34.0	39	low_1	01
73	35.0	3.757174313	0.0	low	1	no_noise	no_learn	bikes	bikes_35.0	40	low_1	01
74	23.0	2.464020646	1.0	low	1	no_noise	no_learn	bikes	bikes_23.0	41	low_1	01
75	28.0	3.291939241	0.0	low	1	no_noise	no_learn	bikes	bikes_28.0	42	low_1	01
76	22.0	3.4200561460000003	1.0	low	1	no_noise	no_learn	bikes	bikes_22.0	43	low_1	01
77	44.0	2.126323834	1.0	low	1	no_noise	no_learn	bikes	bikes_44.0	44	low_1	01
78	45.0	2.8426975580000002	1.0	low	1	no_noise	no_learn	bikes	bikes_45.0	45	low_1	01
79	38.0	14.31166911	0.0	low	1	no_noise	no_learn	bikes	bikes_38.0	46	low_1	01
80	24.0	3.0939533160000003	1.0	low	1	no_noise	no_learn	bikes	bikes_24.0	47	low_1	01
83	49.0	7.602540205	0.0	low	1	noise	no_learn	bikes	bikes_49.0	48	low_1	01
84	66.0	5.289409085	1.0	low	1	noise	no_learn	bikes	bikes_66.0	49	low_1	01
85	65.0	3.220136541	1.0	low	1	noise	no_learn	bikes	bikes_65.0	50	low_1	01
86	54.0	6.868282767999999	0.0	low	1	noise	no_learn	bikes	bikes_54.0	51	low_1	01
87	59.0	4.0963732539999995	0.0	low	1	noise	no_learn	bikes	bikes_59.0	52	low_1	01
88	55.0	3.29481626	1.0	low	1	noise	no_learn	bikes	bikes_55.0	53	low_1	01
89	51.0	3.920843477	0.0	low	1	noise	no_learn	bikes	bikes_51.0	54	low_1	01
90	52.0	2.525936125	1.0	low	1	noise	no_learn	bikes	bikes_52.0	55	low_1	01
91	64.0	2.176907099	1.0	low	1	noise	no_learn	bikes	bikes_64.0	56	low_1	01
92	69.0	3.31685139	0.0	low	1	noise	no_learn	bikes	bikes_69.0	57	low_1	01
93	60.0	3.036850564	1.0	low	1	noise	no_learn	bikes	bikes_60.0	58	low_1	01
94	57.0	4.566145507	0.0	low	1	noise	no_learn	bikes	bikes_57.0	59	low_1	01
95	53.0	2.7498310260000003	1.0	low	1	noise	no_learn	bikes	bikes_53.0	60	low_1	01
96	58.0	3.06345205	0.0	low	1	noise	no_learn	bikes	bikes_58.0	61	low_1	01
97	68.0	3.22772944	0.0	low	1	noise	no_learn	bikes	bikes_68.0	62	low_1	01
98	61.0	3.418399227	0.0	low	1	noise	no_learn	bikes	bikes_61.0	63	low_1	01
99	63.0	2.911221672	0.0	low	1	noise	no_learn	bikes	bikes_63.0	64	low_1	01
100	56.0	3.6326804260000003	0.0	low	1	noise	no_learn	bikes	bikes_56.0	65	low_1	01
101	62.0	2.027148931	1.0	low	1	noise	no_learn	bikes	bikes_62.0	66	low_1	01
102	71.0	1.793761893	1.0	low	1	noise	no_learn	bikes	bikes_71.0	67	low_1	01
103	67.0	5.354056921000001	1.0	low	1	noise	no_learn	bikes	bikes_67.0	68	low_1	01
104	70.0	1.701997948	0.0	low	1	noise	no_learn	bikes	bikes_70.0	69	low_1	01
105	72.0	3.26310543	1.0	low	1	noise	no_learn	bikes	bikes_72.0	70	low_1	01
106	50.0	4.2526626610000005	0.0	low	1	noise	no_learn	bikes	bikes_50.0	71	low_1	01
11	1.0	12.98081839	1.0	low	1	learn	learn	cars	cars_1.0	0	low_1	01
12	2.0	8.342122154	0.0	low	1	learn	learn	cars	cars_2.0	1	low_1	01
13	3.0	4.12860681	0.0	low	1	learn	learn	cars	cars_3.0	2	low_1	01
18	4.0	6.526658622	1.0	low	1	learn	learn	cars	cars_4.0	3	low_1	01
19	5.0	5.020279743	0.0	low	1	learn	learn	cars	cars_5.0	4	low_1	01
20	6.0	4.176392072	0.0	low	1	learn	learn	cars	cars_6.0	5	low_1	01
25	7.0	7.747132301000001	0.0	low	1	learn	learn	cars	cars_7.0	6	low_1	01
26	8.0	3.62251847	1.0	low	1	learn	learn	cars	cars_8.0	7	low_1	01
27	9.0	2.36475538	0.0	low	1	learn	learn	cars	cars_9.0	8	low_1	01
32	10.0	3.626527657	1.0	low	1	learn	learn	cars	cars_10.0	9	low_1	01
33	11.0	4.288927285	0.0	low	1	learn	learn	cars	cars_11.0	10	low_1	01
34	12.0	3.827672629	1.0	low	1	learn	learn	cars	cars_12.0	11	low_1	01
39	13.0	7.792928367999999	1.0	low	1	learn	learn	cars	cars_13.0	12	low_1	01
40	14.0	5.19458699	0.0	low	1	learn	learn	cars	cars_14.0	13	low_1	01
41	15.0	7.127124942000001	1.0	low	1	learn	learn	cars	cars_15.0	14	low_1	01
46	16.0	9.939406329	0.0	low	1	learn	learn	cars	cars_16.0	15	low_1	01
47	17.0	5.023696102	1.0	low	1	learn	learn	cars	cars_17.0	16	low_1	01
48	18.0	4.747436616	0.0	low	1	learn	learn	cars	cars_18.0	17	low_1	01
51	19.0	4.949580441	1.0	low	1	no_noise	no_learn	cars	cars_19.0	18	low_1	01
52	46.0	6.130555889	0.0	low	1	no_noise	no_learn	cars	cars_46.0	19	low_1	01
53	36.0	3.1687201560000005	1.0	low	1	no_noise	no_learn	cars	cars_36.0	20	low_1	01
54	31.0	1.60535239	0.0	low	1	no_noise	no_learn	cars	cars_31.0	21	low_1	01
55	30.0	3.596238723	0.0	low	1	no_noise	no_learn	cars	cars_30.0	22	low_1	01
56	43.0	1.768574198	0.0	low	1	no_noise	no_learn	cars	cars_43.0	23	low_1	01
57	21.0	3.160911683	0.0	low	1	no_noise	no_learn	cars	cars_21.0	24	low_1	01
58	25.0	4.269507001	0.0	low	1	no_noise	no_learn	cars	cars_25.0	25	low_1	01
59	48.0	2.1947879759999998	1.0	low	1	no_noise	no_learn	cars	cars_48.0	26	low_1	01
60	27.0	2.142200523	1.0	low	1	no_noise	no_learn	cars	cars_27.0	27	low_1	01
61	40.0	2.811286182	1.0	low	1	no_noise	no_learn	cars	cars_40.0	28	low_1	01
62	29.0	1.81389576	0.0	low	1	no_noise	no_learn	cars	cars_29.0	29	low_1	01
63	47.0	2.151913501	0.0	low	1	no_noise	no_learn	cars	cars_47.0	30	low_1	01
64	37.0	3.89240475	0.0	low	1	no_noise	no_learn	cars	cars_37.0	31	low_1	01
65	33.0	4.088328136	1.0	low	1	no_noise	no_learn	cars	cars_33.0	32	low_1	01
66	20.0	1.273215113	1.0	low	1	no_noise	no_learn	cars	cars_20.0	33	low_1	01
67	39.0	1.402911543	0.0	low	1	no_noise	no_learn	cars	cars_39.0	34	low_1	01
68	42.0	2.180564966	0.0	low	1	no_noise	no_learn	cars	cars_42.0	35	low_1	01
69	26.0	2.20925533	1.0	low	1	no_noise	no_learn	cars	cars_26.0	36	low_1	01
70	32.0	2.30645441	0.0	low	1	no_noise	no_learn	cars	cars_32.0	37	low_1	01
71	41.0	2.795414356	0.0	low	1	no_noise	no_learn	cars	cars_41.0	38	low_1	01
72	34.0	3.344222378	0.0	low	1	no_noise	no_learn	cars	cars_34.0	39	low_1	01
73	35.0	1.318895695	1.0	low	1	no_noise	no_learn	cars	cars_35.0	40	low_1	01
74	23.0	2.523249151	0.0	low	1	no_noise	no_learn	cars	cars_23.0	41	low_1	01
75	28.0	2.134467014	0.0	low	1	no_noise	no_learn	cars	cars_28.0	42	low_1	01
76	22.0	5.198744485	0.0	low	1	no_noise	no_learn	cars	cars_22.0	43	low_1	01
77	44.0	3.20831726	0.0	low	1	no_noise	no_learn	cars	cars_44.0	44	low_1	01
78	45.0	2.258725067	1.0	low	1	no_noise	no_learn	cars	cars_45.0	45	low_1	01
79	38.0	2.8676785939999996	1.0	low	1	no_noise	no_learn	cars	cars_38.0	46	low_1	01
80	24.0	1.8104295590000001	1.0	low	1	no_noise	no_learn	cars	cars_24.0	47	low_1	01
83	49.0	5.369263791	0.0	low	1	noise	no_learn	cars	cars_49.0	48	low_1	01
84	66.0	3.20661374	0.0	low	1	noise	no_learn	cars	cars_66.0	49	low_1	01
85	65.0	2.431389981	0.0	low	1	noise	no_learn	cars	cars_65.0	50	low_1	01
86	54.0	1.334140249	0.0	low	1	noise	no_learn	cars	cars_54.0	51	low_1	01
87	59.0	1.314119032	0.0	low	1	noise	no_learn	cars	cars_59.0	52	low_1	01
88	55.0	3.939552206	0.0	low	1	noise	no_learn	cars	cars_55.0	53	low_1	01
89	51.0	4.1296891360000005	1.0	low	1	noise	no_learn	cars	cars_51.0	54	low_1	01
90	52.0	2.3119989530000002	0.0	low	1	noise	no_learn	cars	cars_52.0	55	low_1	01
91	64.0	2.3621174380000003	0.0	low	1	noise	no_learn	cars	cars_64.0	56	low_1	01
92	69.0	2.002418317	1.0	low	1	noise	no_learn	cars	cars_69.0	57	low_1	01
93	60.0	1.347709244	0.0	low	1	noise	no_learn	cars	cars_60.0	58	low_1	01
94	57.0	1.58144193	0.0	low	1	noise	no_learn	cars	cars_57.0	59	low_1	01
95	53.0	2.586271675	1.0	low	1	noise	no_learn	cars	cars_53.0	60	low_1	01
96	58.0	1.268295006	1.0	low	1	noise	no_learn	cars	cars_58.0	61	low_1	01
97	68.0	2.186940602	0.0	low	1	noise	no_learn	cars	cars_68.0	62	low_1	01
98	61.0	3.4136225639999997	1.0	low	1	noise	no_learn	cars	cars_61.0	63	low_1	01
99	63.0	1.698769608	0.0	low	1	noise	no_learn	cars	cars_63.0	64	low_1	01
100	56.0	1.379511652	1.0	low	1	noise	no_learn	cars	cars_56.0	65	low_1	01
101	62.0	1.8326810740000001	0.0	low	1	noise	no_learn	cars	cars_62.0	66	low_1	01
102	71.0	3.227427151	0.0	low	1	noise	no_learn	cars	cars_71.0	67	low_1	01
103	67.0	1.113671433	0.0	low	1	noise	no_learn	cars	cars_67.0	68	low_1	01
104	70.0	1.612929892	0.0	low	1	noise	no_learn	cars	cars_70.0	69	low_1	01
105	72.0	3.9649441289999996	0.0	low	1	noise	no_learn	cars	cars_72.0	70	low_1	01
106	50.0	1.928836323	0.0	low	1	noise	no_learn	cars	cars_50.0	71	low_1	01
11	1.0	6.003437025	1.0	low	1	learn	learn	faces	faces_1.0	0	low_1	01
12	2.0	5.964713968	1.0	low	1	learn	learn	faces	faces_2.0	1	low_1	01
13	3.0	5.45325087	1.0	low	1	learn	learn	faces	faces_3.0	2	low_1	01
18	4.0	9.430890352	0.0	low	1	learn	learn	faces	faces_4.0	3	low_1	01
19	5.0	4.833665744	0.0	low	1	learn	learn	faces	faces_5.0	4	low_1	01
20	6.0	6.276919985	1.0	low	1	learn	learn	faces	faces_6.0	5	low_1	01
25	7.0	7.712014432	1.0	low	1	learn	learn	faces	faces_7.0	6	low_1	01
26	8.0	5.974168825	0.0	low	1	learn	learn	faces	faces_8.0	7	low_1	01
27	9.0	2.866819946	1.0	low	1	learn	learn	faces	faces_9.0	8	low_1	01
32	10.0	7.981637323999999	1.0	low	1	learn	learn	faces	faces_10.0	9	low_1	01
33	11.0	3.98877071	0.0	low	1	learn	learn	faces	faces_11.0	10	low_1	01
34	12.0	4.483913816	1.0	low	1	learn	learn	faces	faces_12.0	11	low_1	01
39	13.0	6.368076919	1.0	low	1	learn	learn	faces	faces_13.0	12	low_1	01
40	14.0	3.196701801	1.0	low	1	learn	learn	faces	faces_14.0	13	low_1	01
41	15.0	3.471731868	1.0	low	1	learn	learn	faces	faces_15.0	14	low_1	01
46	16.0	7.055861177000001	0.0	low	1	learn	learn	faces	faces_16.0	15	low_1	01
47	17.0	6.144566972000001	0.0	low	1	learn	learn	faces	faces_17.0	16	low_1	01
48	18.0	2.480327672	0.0	low	1	learn	learn	faces	faces_18.0	17	low_1	01
51	19.0	7.025479044	0.0	low	1	no_noise	no_learn	faces	faces_19.0	18	low_1	01
52	46.0	3.9453658110000003	0.0	low	1	no_noise	no_learn	faces	faces_46.0	19	low_1	01
53	36.0	5.466876189	1.0	low	1	no_noise	no_learn	faces	faces_36.0	20	low_1	01
54	31.0	3.5162531319999997	0.0	low	1	no_noise	no_learn	faces	faces_31.0	21	low_1	01
55	30.0	1.8623415209999998	0.0	low	1	no_noise	no_learn	faces	faces_30.0	22	low_1	01
56	43.0	3.492715063	0.0	low	1	no_noise	no_learn	faces	faces_43.0	23	low_1	01
57	21.0	6.369622	0.0	low	1	no_noise	no_learn	faces	faces_21.0	24	low_1	01
58	25.0	2.968015246	1.0	low	1	no_noise	no_learn	faces	faces_25.0	25	low_1	01
59	48.0	3.5734717760000003	0.0	low	1	no_noise	no_learn	faces	faces_48.0	26	low_1	01
60	27.0	2.715952707	0.0	low	1	no_noise	no_learn	faces	faces_27.0	27	low_1	01
61	40.0	2.188638449	1.0	low	1	no_noise	no_learn	faces	faces_40.0	28	low_1	01
62	29.0	1.222201511	1.0	low	1	no_noise	no_learn	faces	faces_29.0	29	low_1	01
63	47.0	5.141882835	0.0	low	1	no_noise	no_learn	faces	faces_47.0	30	low_1	01
64	37.0	2.877863647	1.0	low	1	no_noise	no_learn	faces	faces_37.0	31	low_1	01
65	33.0	2.444902651	0.0	low	1	no_noise	no_learn	faces	faces_33.0	32	low_1	01
66	20.0	4.4985432560000005	1.0	low	1	no_noise	no_learn	faces	faces_20.0	33	low_1	01
67	39.0	2.900232269	1.0	low	1	no_noise	no_learn	faces	faces_39.0	34	low_1	01
68	42.0	2.8972827160000003	1.0	low	1	no_noise	no_learn	faces	faces_42.0	35	low_1	01
69	26.0	3.933299755	1.0	low	1	no_noise	no_learn	faces	faces_26.0	36	low_1	01
70	32.0	3.561997332	1.0	low	1	no_noise	no_learn	faces	faces_32.0	37	low_1	01
71	41.0	6.598727952000001	0.0	low	1	no_noise	no_learn	faces	faces_41.0	38	low_1	01
72	34.0	2.7217934610000003	0.0	low	1	no_noise	no_learn	faces	faces_34.0	39	low_1	01
73	35.0	2.2915899459999998	1.0	low	1	no_noise	no_learn	faces	faces_35.0	40	low_1	01
74	23.0	4.035514978	0.0	low	1	no_noise	no_learn	faces	faces_23.0	41	low_1	01
75	28.0	3.5114408110000004	1.0	low	1	no_noise	no_learn	faces	faces_28.0	42	low_1	01
76	22.0	2.948551198	0.0	low	1	no_noise	no_learn	faces	faces_22.0	43	low_1	01
77	44.0	3.501499697	1.0	low	1	no_noise	no_learn	faces	faces_44.0	44	low_1	01
78	45.0	2.661153596	1.0	low	1	no_noise	no_learn	faces	faces_45.0	45	low_1	01
79	38.0	5.355706547	0.0	low	1	no_noise	no_learn	faces	faces_38.0	46	low_1	01
80	24.0	3.064185488	0.0	low	1	no_noise	no_learn	faces	faces_24.0	47	low_1	01
83	49.0	7.686811339	0.0	low	1	noise	no_learn	faces	faces_49.0	48	low_1	01
84	66.0	3.427333789	0.0	low	1	noise	no_learn	faces	faces_66.0	49	low_1	01
85	65.0	3.7942898869999997	0.0	low	1	noise	no_learn	faces	faces_65.0	50	low_1	01
86	54.0	4.765287102	1.0	low	1	noise	no_learn	faces	faces_54.0	51	low_1	01
87	59.0	3.8005147839999998	1.0	low	1	noise	no_learn	faces	faces_59.0	52	low_1	01
88	55.0	3.579245265	0.0	low	1	noise	no_learn	faces	faces_55.0	53	low_1	01
89	51.0	2.791866707	0.0	low	1	noise	no_learn	faces	faces_51.0	54	low_1	01
90	52.0	2.379211794	0.0	low	1	noise	no_learn	faces	faces_52.0	55	low_1	01
91	64.0	2.7703466039999998	1.0	low	1	noise	no_learn	faces	faces_64.0	56	low_1	01
92	69.0	2.328182794	0.0	low	1	noise	no_learn	faces	faces_69.0	57	low_1	01
93	60.0	3.90778181	1.0	low	1	noise	no_learn	faces	faces_60.0	58	low_1	01
94	57.0	4.507289799	0.0	low	1	noise	no_learn	faces	faces_57.0	59	low_1	01
95	53.0	4.925491687	0.0	low	1	noise	no_learn	faces	faces_53.0	60	low_1	01
96	58.0	4.543644381	0.0	low	1	noise	no_learn	faces	faces_58.0	61	low_1	01
97	68.0	2.453391884	1.0	low	1	noise	no_learn	faces	faces_68.0	62	low_1	01
98	61.0	3.3726384130000002	0.0	low	1	noise	no_learn	faces	faces_61.0	63	low_1	01
99	63.0	4.831685463	1.0	low	1	noise	no_learn	faces	faces_63.0	64	low_1	01
100	56.0	2.753304925	0.0	low	1	noise	no_learn	faces	faces_56.0	65	low_1	01
101	62.0	3.8550160630000003	0.0	low	1	noise	no_learn	faces	faces_62.0	66	low_1	01
102	71.0	3.1103154510000004	0.0	low	1	noise	no_learn	faces	faces_71.0	67	low_1	01
103	67.0	5.025902493	1.0	low	1	noise	no_learn	faces	faces_67.0	68	low_1	01
104	70.0	4.208832692	0.0	low	1	noise	no_learn	faces	faces_70.0	69	low_1	01
105	72.0	2.441863547	0.0	low	1	noise	no_learn	faces	faces_72.0	70	low_1	01
106	50.0	2.260496663	0.0	low	1	noise	no_learn	faces	faces_50.0	71	low_1	01
11	1.0	7.144086972237346	1.0	y	2	no_noise	learn	bikes	bikes_1.0	0	y_2	02
12	2.0	4.226097344136178	1.0	y	2	no_noise	learn	bikes	bikes_2.0	1	y_2	02
13	3.0	2.650047288661881	1.0	y	2	no_noise	learn	bikes	bikes_3.0	2	y_2	02
18	4.0	2.9076140823772216	1.0	y	2	no_noise	learn	bikes	bikes_4.0	3	y_2	02
19	5.0	4.4033876835528645	1.0	y	2	no_noise	learn	bikes	bikes_5.0	4	y_2	02
20	6.0	4.194613306794963	1.0	y	2	no_noise	learn	bikes	bikes_6.0	5	y_2	02
25	7.0	2.4681083157529433	1.0	y	2	no_noise	learn	bikes	bikes_7.0	6	y_2	02
26	8.0	3.322326326615439	1.0	y	2	no_noise	learn	bikes	bikes_8.0	7	y_2	02
27	9.0	2.0919114101425293	1.0	y	2	no_noise	learn	bikes	bikes_9.0	8	y_2	02
32	10.0	3.3897533938825286	1.0	y	2	no_noise	learn	bikes	bikes_10.0	9	y_2	02
33	11.0	5.683517287713585	1.0	y	2	no_noise	learn	bikes	bikes_11.0	10	y_2	02
34	12.0	2.2854419808236344	1.0	y	2	no_noise	learn	bikes	bikes_12.0	11	y_2	02
39	13.0	5.583864233320128	1.0	y	2	no_noise	learn	bikes	bikes_13.0	12	y_2	02
40	14.0	3.466117896671676	1.0	y	2	no_noise	learn	bikes	bikes_14.0	13	y_2	02
41	15.0	2.046579534504417	1.0	y	2	no_noise	learn	bikes	bikes_15.0	14	y_2	02
46	16.0	5.1593550912512	1.0	y	2	no_noise	learn	bikes	bikes_16.0	15	y_2	02
47	17.0	3.0573432767841946	1.0	y	2	no_noise	learn	bikes	bikes_17.0	16	y_2	02
48	18.0	4.061837117912546	1.0	y	2	no_noise	learn	bikes	bikes_18.0	17	y_2	02
51	19.0	12.227437392161846	0.0	y	2	no_noise	no_learn	bikes	bikes_19.0	18	y_2	02
52	23.0	10.894033281168051	1.0	y	2	no_noise	no_learn	bikes	bikes_23.0	19	y_2	02
53	40.0	4.0360840449593525	1.0	y	2	no_noise	no_learn	bikes	bikes_40.0	20	y_2	02
54	37.0	5.54081939459138	1.0	y	2	no_noise	no_learn	bikes	bikes_37.0	21	y_2	02
55	35.0	3.5581687009844245	1.0	y	2	no_noise	no_learn	bikes	bikes_35.0	22	y_2	02
56	20.0	6.559414333773019	0.0	y	2	no_noise	no_learn	bikes	bikes_20.0	23	y_2	02
57	44.0	3.5810820229335154	0.0	y	2	no_noise	no_learn	bikes	bikes_44.0	24	y_2	02
58	24.0	2.066263693248402	0.0	y	2	no_noise	no_learn	bikes	bikes_24.0	25	y_2	02
59	27.0	5.22960975305341	1.0	y	2	no_noise	no_learn	bikes	bikes_27.0	26	y_2	02
60	34.0	6.291973246044107	1.0	y	2	no_noise	no_learn	bikes	bikes_34.0	27	y_2	02
61	36.0	3.7333575922411915	0.0	y	2	no_noise	no_learn	bikes	bikes_36.0	28	y_2	02
62	39.0	8.456001283723706	0.0	y	2	no_noise	no_learn	bikes	bikes_39.0	29	y_2	02
63	43.0	2.238780187550219	1.0	y	2	no_noise	no_learn	bikes	bikes_43.0	30	y_2	02
64	32.0	4.03832569772112	0.0	y	2	no_noise	no_learn	bikes	bikes_32.0	31	y_2	02
65	38.0	2.6045987109282582	0.0	y	2	no_noise	no_learn	bikes	bikes_38.0	32	y_2	02
66	30.0	3.6818964252688597	0.0	y	2	no_noise	no_learn	bikes	bikes_30.0	33	y_2	02
67	33.0	1.7311260698706974	1.0	y	2	no_noise	no_learn	bikes	bikes_33.0	34	y_2	02
68	42.0	3.0331835116148795	0.0	y	2	no_noise	no_learn	bikes	bikes_42.0	35	y_2	02
69	46.0	6.461242747653159	1.0	y	2	no_noise	no_learn	bikes	bikes_46.0	36	y_2	02
70	26.0	2.9943577778303734	1.0	y	2	no_noise	no_learn	bikes	bikes_26.0	37	y_2	02
71	28.0	1.9427426289248613	0.0	y	2	no_noise	no_learn	bikes	bikes_28.0	38	y_2	02
72	29.0	4.7335946433731815	0.0	y	2	no_noise	no_learn	bikes	bikes_29.0	39	y_2	02
73	41.0	2.4337079416591223	0.0	y	2	no_noise	no_learn	bikes	bikes_41.0	40	y_2	02
74	25.0	3.148527730119895	1.0	y	2	no_noise	no_learn	bikes	bikes_25.0	41	y_2	02
75	31.0	1.8774032324854488	0.0	y	2	no_noise	no_learn	bikes	bikes_31.0	42	y_2	02
76	45.0	1.9515597154086208	1.0	y	2	no_noise	no_learn	bikes	bikes_45.0	43	y_2	02
77	22.0	2.114368459313482	1.0	y	2	no_noise	no_learn	bikes	bikes_22.0	44	y_2	02
78	21.0	2.9189005527950935	1.0	y	2	no_noise	no_learn	bikes	bikes_21.0	45	y_2	02
79	48.0	1.8666787961201408	0.0	y	2	no_noise	no_learn	bikes	bikes_48.0	46	y_2	02
80	47.0	2.415164870076296	0.0	y	2	no_noise	no_learn	bikes	bikes_47.0	47	y_2	02
83	49.0	4.8571339423997415	1.0	y	2	noise	no_learn	bikes	bikes_49.0	48	y_2	02
84	70.0	5.126070275732673	1.0	y	2	noise	no_learn	bikes	bikes_70.0	49	y_2	02
85	59.0	5.6178549344322155	0.0	y	2	noise	no_learn	bikes	bikes_59.0	50	y_2	02
86	64.0	1.9609254638307905	1.0	y	2	noise	no_learn	bikes	bikes_64.0	51	y_2	02
87	51.0	5.36456073412046	0.0	y	2	noise	no_learn	bikes	bikes_51.0	52	y_2	02
88	56.0	2.549675786988701	1.0	y	2	noise	no_learn	bikes	bikes_56.0	53	y_2	02
89	65.0	6.194768909589584	0.0	y	2	noise	no_learn	bikes	bikes_65.0	54	y_2	02
90	54.0	6.362686611919344	0.0	y	2	noise	no_learn	bikes	bikes_54.0	55	y_2	02
91	61.0	1.6379763208205986	1.0	y	2	noise	no_learn	bikes	bikes_61.0	56	y_2	02
92	58.0	8.334411882218774	0.0	y	2	noise	no_learn	bikes	bikes_58.0	57	y_2	02
93	72.0	5.772556529603207	1.0	y	2	noise	no_learn	bikes	bikes_72.0	58	y_2	02
94	71.0	5.941228743402463	1.0	y	2	noise	no_learn	bikes	bikes_71.0	59	y_2	02
95	69.0	1.7817204806506195	1.0	y	2	noise	no_learn	bikes	bikes_69.0	60	y_2	02
96	52.0	5.584971687585495	1.0	y	2	noise	no_learn	bikes	bikes_52.0	61	y_2	02
97	50.0	1.8392995929198148	1.0	y	2	noise	no_learn	bikes	bikes_50.0	62	y_2	02
98	53.0	4.684407951626781	1.0	y	2	noise	no_learn	bikes	bikes_53.0	63	y_2	02
99	57.0	5.037846327652005	0.0	y	2	noise	no_learn	bikes	bikes_57.0	64	y_2	02
100	68.0	2.255523696603632	1.0	y	2	noise	no_learn	bikes	bikes_68.0	65	y_2	02
101	67.0	5.334957707646937	0.0	y	2	noise	no_learn	bikes	bikes_67.0	66	y_2	02
102	55.0	8.262264458296157	1.0	y	2	noise	no_learn	bikes	bikes_55.0	67	y_2	02
103	66.0	1.8673048542405013	1.0	y	2	noise	no_learn	bikes	bikes_66.0	68	y_2	02
104	63.0	2.422169021914669	1.0	y	2	noise	no_learn	bikes	bikes_63.0	69	y_2	02
105	62.0	3.6222450403638495	1.0	y	2	noise	no_learn	bikes	bikes_62.0	70	y_2	02
106	60.0	3.8787931220322207	0.0	y	2	noise	no_learn	bikes	bikes_60.0	71	y_2	02
11	1.0	12.799642356701042	0.0	y	2	learn	learn	cars	cars_1.0	0	y_2	02
12	2.0	6.548611690794133	1.0	y	2	learn	learn	cars	cars_2.0	1	y_2	02
13	3.0	7.988040466451821	0.0	y	2	learn	learn	cars	cars_3.0	2	y_2	02
18	4.0	3.5765687314569727	1.0	y	2	learn	learn	cars	cars_4.0	3	y_2	02
19	5.0	5.69022198521634	1.0	y	2	learn	learn	cars	cars_5.0	4	y_2	02
20	6.0	4.236095228910926	0.0	y	2	learn	learn	cars	cars_6.0	5	y_2	02
25	7.0	3.976717121413458	1.0	y	2	learn	learn	cars	cars_7.0	6	y_2	02
26	8.0	10.384430481614801	1.0	y	2	learn	learn	cars	cars_8.0	7	y_2	02
27	9.0	4.2498081304083835	0.0	y	2	learn	learn	cars	cars_9.0	8	y_2	02
32	10.0	5.750548459329367	1.0	y	2	learn	learn	cars	cars_10.0	9	y_2	02
33	11.0	6.240957816245099	0.0	y	2	learn	learn	cars	cars_11.0	10	y_2	02
34	12.0	3.68289933390588	1.0	y	2	learn	learn	cars	cars_12.0	11	y_2	02
39	13.0	7.098400938155464	0.0	y	2	learn	learn	cars	cars_13.0	12	y_2	02
40	14.0	5.9686958783895525	1.0	y	2	learn	learn	cars	cars_14.0	13	y_2	02
41	15.0	2.461602984331876	1.0	y	2	learn	learn	cars	cars_15.0	14	y_2	02
46	16.0	7.667848005245105	0.0	y	2	learn	learn	cars	cars_16.0	15	y_2	02
47	17.0	3.2697832339608794	0.0	y	2	learn	learn	cars	cars_17.0	16	y_2	02
48	18.0	7.628495085949908	1.0	y	2	learn	learn	cars	cars_18.0	17	y_2	02
51	19.0	8.125513509483426	0.0	y	2	no_noise	no_learn	cars	cars_19.0	18	y_2	02
52	23.0	11.870436360482929	1.0	y	2	no_noise	no_learn	cars	cars_23.0	19	y_2	02
53	40.0	5.7727777773270645	1.0	y	2	no_noise	no_learn	cars	cars_40.0	20	y_2	02
54	37.0	2.6855611952569234	1.0	y	2	no_noise	no_learn	cars	cars_37.0	21	y_2	02
55	35.0	4.6453443562777466	1.0	y	2	no_noise	no_learn	cars	cars_35.0	22	y_2	02
56	20.0	5.191786522690563	0.0	y	2	no_noise	no_learn	cars	cars_20.0	23	y_2	02
57	44.0	3.92570169161354	0.0	y	2	no_noise	no_learn	cars	cars_44.0	24	y_2	02
58	24.0	6.348783664300754	0.0	y	2	no_noise	no_learn	cars	cars_24.0	25	y_2	02
59	27.0	4.90437803050645	0.0	y	2	no_noise	no_learn	cars	cars_27.0	26	y_2	02
60	34.0	7.4703548311017585	0.0	y	2	no_noise	no_learn	cars	cars_34.0	27	y_2	02
61	36.0	3.3292733430535013	0.0	y	2	no_noise	no_learn	cars	cars_36.0	28	y_2	02
62	39.0	3.449095599276916	1.0	y	2	no_noise	no_learn	cars	cars_39.0	29	y_2	02
63	43.0	3.2283207621940164	0.0	y	2	no_noise	no_learn	cars	cars_43.0	30	y_2	02
64	32.0	7.676872562121389	1.0	y	2	no_noise	no_learn	cars	cars_32.0	31	y_2	02
65	38.0	2.5875525058127096	1.0	y	2	no_noise	no_learn	cars	cars_38.0	32	y_2	02
66	30.0	4.506045411702871	0.0	y	2	no_noise	no_learn	cars	cars_30.0	33	y_2	02
67	33.0	3.533845228707833	0.0	y	2	no_noise	no_learn	cars	cars_33.0	34	y_2	02
68	42.0	10.935818709777775	0.0	y	2	no_noise	no_learn	cars	cars_42.0	35	y_2	02
69	46.0	3.3613360282870417	0.0	y	2	no_noise	no_learn	cars	cars_46.0	36	y_2	02
70	26.0	7.8031632751462885	1.0	y	2	no_noise	no_learn	cars	cars_26.0	37	y_2	02
71	28.0	2.6789488869126217	1.0	y	2	no_noise	no_learn	cars	cars_28.0	38	y_2	02
72	29.0	3.50997519270004	1.0	y	2	no_noise	no_learn	cars	cars_29.0	39	y_2	02
73	41.0	1.6767161488951388	0.0	y	2	no_noise	no_learn	cars	cars_41.0	40	y_2	02
74	25.0	2.7903495470909547	1.0	y	2	no_noise	no_learn	cars	cars_25.0	41	y_2	02
75	31.0	2.4309678736954083	0.0	y	2	no_noise	no_learn	cars	cars_31.0	42	y_2	02
76	45.0	1.84580857128276	1.0	y	2	no_noise	no_learn	cars	cars_45.0	43	y_2	02
77	22.0	3.932946136309511	0.0	y	2	no_noise	no_learn	cars	cars_22.0	44	y_2	02
78	21.0	8.204687777320032	0.0	y	2	no_noise	no_learn	cars	cars_21.0	45	y_2	02
79	48.0	2.348757325285078	0.0	y	2	no_noise	no_learn	cars	cars_48.0	46	y_2	02
80	47.0	3.1526106826177056	0.0	y	2	no_noise	no_learn	cars	cars_47.0	47	y_2	02
83	49.0	11.935802095937106	1.0	y	2	noise	no_learn	cars	cars_49.0	48	y_2	02
84	70.0	5.39063433262254	1.0	y	2	noise	no_learn	cars	cars_70.0	49	y_2	02
85	59.0	4.029665024462702	0.0	y	2	noise	no_learn	cars	cars_59.0	50	y_2	02
86	64.0	1.881172142885589	0.0	y	2	noise	no_learn	cars	cars_64.0	51	y_2	02
87	51.0	3.3203006537751207	0.0	y	2	noise	no_learn	cars	cars_51.0	52	y_2	02
88	56.0	2.390065815119669	1.0	y	2	noise	no_learn	cars	cars_56.0	53	y_2	02
89	65.0	3.0355029657730483	0.0	y	2	noise	no_learn	cars	cars_65.0	54	y_2	02
90	54.0	6.947768923366311	0.0	y	2	noise	no_learn	cars	cars_54.0	55	y_2	02
91	61.0	4.64492495812101	1.0	y	2	noise	no_learn	cars	cars_61.0	56	y_2	02
92	58.0	4.843893522304826	1.0	y	2	noise	no_learn	cars	cars_58.0	57	y_2	02
93	72.0	3.0661688727950605	0.0	y	2	noise	no_learn	cars	cars_72.0	58	y_2	02
94	71.0	4.060408732882024	1.0	y	2	noise	no_learn	cars	cars_71.0	59	y_2	02
95	69.0	2.6829572797396395	1.0	y	2	noise	no_learn	cars	cars_69.0	60	y_2	02
96	52.0	2.7921989511405627	0.0	y	2	noise	no_learn	cars	cars_52.0	61	y_2	02
97	50.0	1.5767328437787	0.0	y	2	noise	no_learn	cars	cars_50.0	62	y_2	02
98	53.0	2.3529581955262984	0.0	y	2	noise	no_learn	cars	cars_53.0	63	y_2	02
99	57.0	4.933618389008188	0.0	y	2	noise	no_learn	cars	cars_57.0	64	y_2	02
100	68.0	3.016430277386462	0.0	y	2	noise	no_learn	cars	cars_68.0	65	y_2	02
101	67.0	1.5879864917324085	0.0	y	2	noise	no_learn	cars	cars_67.0	66	y_2	02
102	55.0	3.187133431827533	0.0	y	2	noise	no_learn	cars	cars_55.0	67	y_2	02
103	66.0	2.816593741364158	1.0	y	2	noise	no_learn	cars	cars_66.0	68	y_2	02
104	63.0	1.7763809545422191	0.0	y	2	noise	no_learn	cars	cars_63.0	69	y_2	02
105	62.0	3.3439380960217022	0.0	y	2	noise	no_learn	cars	cars_62.0	70	y_2	02
106	60.0	2.1957321070967737	1.0	y	2	noise	no_learn	cars	cars_60.0	71	y_2	02
11	1.0	5.2173852084961245	1.0	y	2	learn	learn	faces	faces_1.0	0	y_2	02
12	2.0	3.3057983922672065	1.0	y	2	learn	learn	faces	faces_2.0	1	y_2	02
13	3.0	2.2725735486592384	1.0	y	2	learn	learn	faces	faces_3.0	2	y_2	02
18	4.0	4.628306255475764	1.0	y	2	learn	learn	faces	faces_4.0	3	y_2	02
19	5.0	2.684668910480468	1.0	y	2	learn	learn	faces	faces_5.0	4	y_2	02
20	6.0	5.075190187946646	0.0	y	2	learn	learn	faces	faces_6.0	5	y_2	02
25	7.0	2.6864040437276344	1.0	y	2	learn	learn	faces	faces_7.0	6	y_2	02
26	8.0	2.1717964261597444	1.0	y	2	learn	learn	faces	faces_8.0	7	y_2	02
27	9.0	3.2079769124356967	1.0	y	2	learn	learn	faces	faces_9.0	8	y_2	02
32	10.0	6.153716921236992	1.0	y	2	learn	learn	faces	faces_10.0	9	y_2	02
33	11.0	4.101542980003615	1.0	y	2	learn	learn	faces	faces_11.0	10	y_2	02
34	12.0	3.015567573349472	1.0	y	2	learn	learn	faces	faces_12.0	11	y_2	02
39	13.0	5.245169222091136	1.0	y	2	learn	learn	faces	faces_13.0	12	y_2	02
40	14.0	2.602765515503052	1.0	y	2	learn	learn	faces	faces_14.0	13	y_2	02
41	15.0	3.2992914399819715	1.0	y	2	learn	learn	faces	faces_15.0	14	y_2	02
46	16.0	2.515828532203159	1.0	y	2	learn	learn	faces	faces_16.0	15	y_2	02
47	17.0	3.026326858257562	1.0	y	2	learn	learn	faces	faces_17.0	16	y_2	02
48	18.0	2.188755509919247	1.0	y	2	learn	learn	faces	faces_18.0	17	y_2	02
51	19.0	5.734041596192582	1.0	y	2	no_noise	no_learn	faces	faces_19.0	18	y_2	02
52	23.0	9.530624980245193	0.0	y	2	no_noise	no_learn	faces	faces_23.0	19	y_2	02
53	40.0	1.483854589188013	1.0	y	2	no_noise	no_learn	faces	faces_40.0	20	y_2	02
54	37.0	4.114447476357782	0.0	y	2	no_noise	no_learn	faces	faces_37.0	21	y_2	02
55	35.0	2.1488928293856593	1.0	y	2	no_noise	no_learn	faces	faces_35.0	22	y_2	02
56	20.0	3.6045796657945175	0.0	y	2	no_noise	no_learn	faces	faces_20.0	23	y_2	02
57	44.0	4.625246067180342	0.0	y	2	no_noise	no_learn	faces	faces_44.0	24	y_2	02
58	24.0	4.151083830194693	0.0	y	2	no_noise	no_learn	faces	faces_24.0	25	y_2	02
59	27.0	4.73563774048489	0.0	y	2	no_noise	no_learn	faces	faces_27.0	26	y_2	02
60	34.0	2.6429260295108183	0.0	y	2	no_noise	no_learn	faces	faces_34.0	27	y_2	02
61	36.0	1.8992565103962988	0.0	y	2	no_noise	no_learn	faces	faces_36.0	28	y_2	02
62	39.0	4.295195520585367	0.0	y	2	no_noise	no_learn	faces	faces_39.0	29	y_2	02
63	43.0	2.161897008779306	1.0	y	2	no_noise	no_learn	faces	faces_43.0	30	y_2	02
64	32.0	3.0653900483903267	1.0	y	2	no_noise	no_learn	faces	faces_32.0	31	y_2	02
65	38.0	2.718884101042022	1.0	y	2	no_noise	no_learn	faces	faces_38.0	32	y_2	02
66	30.0	4.307163968876012	1.0	y	2	no_noise	no_learn	faces	faces_30.0	33	y_2	02
67	33.0	2.3088188694318887	0.0	y	2	no_noise	no_learn	faces	faces_33.0	34	y_2	02
68	42.0	2.959778703650045	0.0	y	2	no_noise	no_learn	faces	faces_42.0	35	y_2	02
69	46.0	3.3786711521333928	0.0	y	2	no_noise	no_learn	faces	faces_46.0	36	y_2	02
70	26.0	1.9207754854278392	1.0	y	2	no_noise	no_learn	faces	faces_26.0	37	y_2	02
71	28.0	5.332305571471807	1.0	y	2	no_noise	no_learn	faces	faces_28.0	38	y_2	02
72	29.0	4.908604834546168	0.0	y	2	no_noise	no_learn	faces	faces_29.0	39	y_2	02
73	41.0	2.1900813753991315	1.0	y	2	no_noise	no_learn	faces	faces_41.0	40	y_2	02
74	25.0	3.3590704678053958	1.0	y	2	no_noise	no_learn	faces	faces_25.0	41	y_2	02
75	31.0	2.2526665213290467	0.0	y	2	no_noise	no_learn	faces	faces_31.0	42	y_2	02
76	45.0	7.2887384098203265	1.0	y	2	no_noise	no_learn	faces	faces_45.0	43	y_2	02
77	22.0	3.858645396629072	0.0	y	2	no_noise	no_learn	faces	faces_22.0	44	y_2	02
78	21.0	3.804094055405585	0.0	y	2	no_noise	no_learn	faces	faces_21.0	45	y_2	02
79	48.0	6.958577239363875	1.0	y	2	no_noise	no_learn	faces	faces_48.0	46	y_2	02
80	47.0	2.371792617133906	1.0	y	2	no_noise	no_learn	faces	faces_47.0	47	y_2	02
83	49.0	9.802561935180165	0.0	y	2	noise	no_learn	faces	faces_49.0	48	y_2	02
84	70.0	6.3438359816873335	0.0	y	2	noise	no_learn	faces	faces_70.0	49	y_2	02
85	59.0	2.0851353946918607	0.0	y	2	noise	no_learn	faces	faces_59.0	50	y_2	02
86	64.0	5.287220877356958	0.0	y	2	noise	no_learn	faces	faces_64.0	51	y_2	02
87	51.0	1.7963455224889913	0.0	y	2	noise	no_learn	faces	faces_51.0	52	y_2	02
88	56.0	2.0756099913196517	0.0	y	2	noise	no_learn	faces	faces_56.0	53	y_2	02
89	65.0	1.7656666485672758	1.0	y	2	noise	no_learn	faces	faces_65.0	54	y_2	02
90	54.0	2.4325534823829003	1.0	y	2	noise	no_learn	faces	faces_54.0	55	y_2	02
91	61.0	5.008428484712566	0.0	y	2	noise	no_learn	faces	faces_61.0	56	y_2	02
92	58.0	2.3330155092216955	1.0	y	2	noise	no_learn	faces	faces_58.0	57	y_2	02
93	72.0	3.2559309382922947	0.0	y	2	noise	no_learn	faces	faces_72.0	58	y_2	02
94	71.0	2.2461372821862824	0.0	y	2	noise	no_learn	faces	faces_71.0	59	y_2	02
95	69.0	1.8398535226606327	1.0	y	2	noise	no_learn	faces	faces_69.0	60	y_2	02
96	52.0	2.9365716003831035	0.0	y	2	noise	no_learn	faces	faces_52.0	61	y_2	02
97	50.0	2.8287340010738258	0.0	y	2	noise	no_learn	faces	faces_50.0	62	y_2	02
98	53.0	2.8075513550002142	0.0	y	2	noise	no_learn	faces	faces_53.0	63	y_2	02
99	57.0	2.8502104284661987	0.0	y	2	noise	no_learn	faces	faces_57.0	64	y_2	02
100	68.0	2.5695358093080363	0.0	y	2	noise	no_learn	faces	faces_68.0	65	y_2	02
101	67.0	2.245634814828918	0.0	y	2	noise	no_learn	faces	faces_67.0	66	y_2	02
102	55.0	3.7170030901743294	0.0	y	2	noise	no_learn	faces	faces_55.0	67	y_2	02
103	66.0	2.6387587921653903	0.0	y	2	noise	no_learn	faces	faces_66.0	68	y_2	02
104	63.0	2.49489468851516	1.0	y	2	noise	no_learn	faces	faces_63.0	69	y_2	02
105	62.0	1.6699826810845482	0.0	y	2	noise	no_learn	faces	faces_62.0	70	y_2	02
106	60.0	2.0581460089097163	0.0	y	2	noise	no_learn	faces	faces_60.0	71	y_2	02
11	1.0	6.361795542790787	1.0	y	3	no_noise	learn	bikes	bikes_1.0	0	y_3	03
12	2.0	3.564275705459295	1.0	y	3	no_noise	learn	bikes	bikes_2.0	1	y_3	03
13	3.0	5.017861904139863	1.0	y	3	no_noise	learn	bikes	bikes_3.0	2	y_3	03
18	4.0	3.8885110028186323	1.0	y	3	no_noise	learn	bikes	bikes_4.0	3	y_3	03
19	5.0	4.325984207936926	1.0	y	3	no_noise	learn	bikes	bikes_5.0	4	y_3	03
20	6.0	3.0905790612123383	1.0	y	3	no_noise	learn	bikes	bikes_6.0	5	y_3	03
25	7.0	2.6634080577932764	1.0	y	3	no_noise	learn	bikes	bikes_7.0	6	y_3	03
26	8.0	2.2217044016961154	1.0	y	3	no_noise	learn	bikes	bikes_8.0	7	y_3	03
27	9.0	1.880630774829115	1.0	y	3	no_noise	learn	bikes	bikes_9.0	8	y_3	03
32	10.0	3.5787731043801614	1.0	y	3	no_noise	learn	bikes	bikes_10.0	9	y_3	03
33	11.0	3.103985619707601	1.0	y	3	no_noise	learn	bikes	bikes_11.0	10	y_3	03
34	12.0	3.252219973725005	1.0	y	3	no_noise	learn	bikes	bikes_12.0	11	y_3	03
39	13.0	4.047629448154112	1.0	y	3	no_noise	learn	bikes	bikes_13.0	12	y_3	03
40	14.0	3.1030070240085483	1.0	y	3	no_noise	learn	bikes	bikes_14.0	13	y_3	03
41	15.0	3.0587866547903104	1.0	y	3	no_noise	learn	bikes	bikes_15.0	14	y_3	03
46	16.0	2.3279024986404693	1.0	y	3	no_noise	learn	bikes	bikes_16.0	15	y_3	03
47	17.0	3.11559018438129	1.0	y	3	no_noise	learn	bikes	bikes_17.0	16	y_3	03
48	18.0	2.8431503568735934	1.0	y	3	no_noise	learn	bikes	bikes_18.0	17	y_3	03
51	19.0	7.764461132124778	1.0	y	3	no_noise	no_learn	bikes	bikes_19.0	18	y_3	03
52	45.0	3.0072873975514085	1.0	y	3	no_noise	no_learn	bikes	bikes_45.0	19	y_3	03
53	41.0	6.8703881398250815	1.0	y	3	no_noise	no_learn	bikes	bikes_41.0	20	y_3	03
54	29.0	10.943256847536759	0.0	y	3	no_noise	no_learn	bikes	bikes_29.0	21	y_3	03
55	34.0	9.583761713771311	0.0	y	3	no_noise	no_learn	bikes	bikes_34.0	22	y_3	03
56	30.0	5.329749066180738	1.0	y	3	no_noise	no_learn	bikes	bikes_30.0	23	y_3	03
57	25.0	9.77289893679517	1.0	y	3	no_noise	no_learn	bikes	bikes_25.0	24	y_3	03
58	21.0	2.4249155733268712	1.0	y	3	no_noise	no_learn	bikes	bikes_21.0	25	y_3	03
59	43.0	6.4495016253204085	1.0	y	3	no_noise	no_learn	bikes	bikes_43.0	26	y_3	03
60	26.0	7.251770994829713	1.0	y	3	no_noise	no_learn	bikes	bikes_26.0	27	y_3	03
61	32.0	9.604443918564355	0.0	y	3	no_noise	no_learn	bikes	bikes_32.0	28	y_3	03
62	33.0	4.179878046310478	1.0	y	3	no_noise	no_learn	bikes	bikes_33.0	29	y_3	03
63	36.0	10.639459004742092	0.0	y	3	no_noise	no_learn	bikes	bikes_36.0	30	y_3	03
64	46.0	9.368416765875736	0.0	y	3	no_noise	no_learn	bikes	bikes_46.0	31	y_3	03
65	44.0	10.779264063616212	1.0	y	3	no_noise	no_learn	bikes	bikes_44.0	32	y_3	03
66	23.0	19.91977581851461	0.0	y	3	no_noise	no_learn	bikes	bikes_23.0	33	y_3	03
67	48.0	14.90280700958101	0.0	y	3	no_noise	no_learn	bikes	bikes_48.0	34	y_3	03
68	28.0	4.862001797537231	1.0	y	3	no_noise	no_learn	bikes	bikes_28.0	35	y_3	03
69	42.0	17.036594616629372	1.0	y	3	no_noise	no_learn	bikes	bikes_42.0	36	y_3	03
70	20.0	15.920623124358823	0.0	y	3	no_noise	no_learn	bikes	bikes_20.0	37	y_3	03
71	22.0	11.460115843039606	0.0	y	3	no_noise	no_learn	bikes	bikes_22.0	38	y_3	03
72	47.0	3.7485268386444663	0.0	y	3	no_noise	no_learn	bikes	bikes_47.0	39	y_3	03
73	40.0	9.535076273734376	0.0	y	3	no_noise	no_learn	bikes	bikes_40.0	40	y_3	03
74	35.0	5.3112939263846775	1.0	y	3	no_noise	no_learn	bikes	bikes_35.0	41	y_3	03
75	39.0	9.540612734630486	1.0	y	3	no_noise	no_learn	bikes	bikes_39.0	42	y_3	03
76	31.0	12.860421051436786	0.0	y	3	no_noise	no_learn	bikes	bikes_31.0	43	y_3	03
77	24.0	6.727035823492769	1.0	y	3	no_noise	no_learn	bikes	bikes_24.0	44	y_3	03
78	37.0	11.335216640422006	0.0	y	3	no_noise	no_learn	bikes	bikes_37.0	45	y_3	03
79	38.0	9.70877680805097	0.0	y	3	no_noise	no_learn	bikes	bikes_38.0	46	y_3	03
80	27.0	3.576318308209011	1.0	y	3	no_noise	no_learn	bikes	bikes_27.0	47	y_3	03
83	49.0	4.838036535860738	1.0	y	3	noise	no_learn	bikes	bikes_49.0	48	y_3	03
84	63.0	2.656630826697437	1.0	y	3	noise	no_learn	bikes	bikes_63.0	49	y_3	03
85	54.0	4.21293958802562	1.0	y	3	noise	no_learn	bikes	bikes_54.0	50	y_3	03
86	53.0	6.41454894234812	1.0	y	3	noise	no_learn	bikes	bikes_53.0	51	y_3	03
87	69.0	4.415042089745839	1.0	y	3	noise	no_learn	bikes	bikes_69.0	52	y_3	03
88	70.0	5.0662284394911685	1.0	y	3	noise	no_learn	bikes	bikes_70.0	53	y_3	03
89	66.0	4.4045778018025885	1.0	y	3	noise	no_learn	bikes	bikes_66.0	54	y_3	03
90	65.0	2.5992259571394243	1.0	y	3	noise	no_learn	bikes	bikes_65.0	55	y_3	03
91	72.0	7.506524376556626	0.0	y	3	noise	no_learn	bikes	bikes_72.0	56	y_3	03
92	64.0	9.048254290626572	1.0	y	3	noise	no_learn	bikes	bikes_64.0	57	y_3	03
93	60.0	11.56966061571802	1.0	y	3	noise	no_learn	bikes	bikes_60.0	58	y_3	03
94	62.0	5.5286649523350215	1.0	y	3	noise	no_learn	bikes	bikes_62.0	59	y_3	03
95	56.0	8.41046517941868	1.0	y	3	noise	no_learn	bikes	bikes_56.0	60	y_3	03
96	61.0	3.396907070282396	1.0	y	3	noise	no_learn	bikes	bikes_61.0	61	y_3	03
97	67.0	4.701988230917777	1.0	y	3	noise	no_learn	bikes	bikes_67.0	62	y_3	03
98	57.0	6.6952109998219385	1.0	y	3	noise	no_learn	bikes	bikes_57.0	63	y_3	03
99	58.0	2.8376645479293074	1.0	y	3	noise	no_learn	bikes	bikes_58.0	64	y_3	03
100	50.0	2.8864739839427784	0.0	y	3	noise	no_learn	bikes	bikes_50.0	65	y_3	03
101	59.0	7.3269818487715375	1.0	y	3	noise	no_learn	bikes	bikes_59.0	66	y_3	03
102	51.0	9.548706511248382	1.0	y	3	noise	no_learn	bikes	bikes_51.0	67	y_3	03
103	68.0	4.657504066339243	1.0	y	3	noise	no_learn	bikes	bikes_68.0	68	y_3	03
104	55.0	6.9125273216614005	1.0	y	3	noise	no_learn	bikes	bikes_55.0	69	y_3	03
105	52.0	2.978049875559009	1.0	y	3	noise	no_learn	bikes	bikes_52.0	70	y_3	03
106	71.0	5.357016429872601	1.0	y	3	noise	no_learn	bikes	bikes_71.0	71	y_3	03
11	1.0	12.663524759889695	0.0	y	3	learn	learn	cars	cars_1.0	0	y_3	03
12	2.0	9.101619970970203	1.0	y	3	learn	learn	cars	cars_2.0	1	y_3	03
13	3.0	11.566143344211016	1.0	y	3	learn	learn	cars	cars_3.0	2	y_3	03
18	4.0	6.924534265435796	1.0	y	3	learn	learn	cars	cars_4.0	3	y_3	03
19	5.0	5.438143026523903	1.0	y	3	learn	learn	cars	cars_5.0	4	y_3	03
20	6.0	3.248300323117292	1.0	y	3	learn	learn	cars	cars_6.0	5	y_3	03
25	7.0	7.143384733582934	1.0	y	3	learn	learn	cars	cars_7.0	6	y_3	03
26	8.0	3.518513896058721	1.0	y	3	learn	learn	cars	cars_8.0	7	y_3	03
27	9.0	5.86078979764352	1.0	y	3	learn	learn	cars	cars_9.0	8	y_3	03
32	10.0	3.508055281134148	1.0	y	3	learn	learn	cars	cars_10.0	9	y_3	03
33	11.0	6.524690192407434	1.0	y	3	learn	learn	cars	cars_11.0	10	y_3	03
34	12.0	3.443396646922338	1.0	y	3	learn	learn	cars	cars_12.0	11	y_3	03
39	13.0	5.10536294756821	1.0	y	3	learn	learn	cars	cars_13.0	12	y_3	03
40	14.0	3.4922097298767767	1.0	y	3	learn	learn	cars	cars_14.0	13	y_3	03
41	15.0	7.03526186248564	1.0	y	3	learn	learn	cars	cars_15.0	14	y_3	03
46	16.0	4.007949925075081	1.0	y	3	learn	learn	cars	cars_16.0	15	y_3	03
47	17.0	7.830871108206337	0.0	y	3	learn	learn	cars	cars_17.0	16	y_3	03
48	18.0	3.3935612049826887	1.0	y	3	learn	learn	cars	cars_18.0	17	y_3	03
51	19.0	4.069295516452257	1.0	y	3	no_noise	no_learn	cars	cars_19.0	18	y_3	03
52	45.0	3.5223962668314925	1.0	y	3	no_noise	no_learn	cars	cars_45.0	19	y_3	03
53	41.0	5.149182963763451	0.0	y	3	no_noise	no_learn	cars	cars_41.0	20	y_3	03
54	29.0	3.0009802165659494	0.0	y	3	no_noise	no_learn	cars	cars_29.0	21	y_3	03
55	34.0	7.683096268694499	0.0	y	3	no_noise	no_learn	cars	cars_34.0	22	y_3	03
56	30.0	3.20964356424156	1.0	y	3	no_noise	no_learn	cars	cars_30.0	23	y_3	03
57	25.0	8.745878349411214	1.0	y	3	no_noise	no_learn	cars	cars_25.0	24	y_3	03
58	21.0	6.735671778598771	0.0	y	3	no_noise	no_learn	cars	cars_21.0	25	y_3	03
59	43.0	7.854419403018255	1.0	y	3	no_noise	no_learn	cars	cars_43.0	26	y_3	03
60	26.0	10.863331715172537	1.0	y	3	no_noise	no_learn	cars	cars_26.0	27	y_3	03
61	32.0	8.131308092724794	1.0	y	3	no_noise	no_learn	cars	cars_32.0	28	y_3	03
62	33.0	10.462364789684218	1.0	y	3	no_noise	no_learn	cars	cars_33.0	29	y_3	03
63	36.0	5.218354484237351	0.0	y	3	no_noise	no_learn	cars	cars_36.0	30	y_3	03
64	46.0	4.325217134784906	0.0	y	3	no_noise	no_learn	cars	cars_46.0	31	y_3	03
65	44.0	10.450209131777227	0.0	y	3	no_noise	no_learn	cars	cars_44.0	32	y_3	03
66	23.0	8.345951612394856	1.0	y	3	no_noise	no_learn	cars	cars_23.0	33	y_3	03
67	48.0	3.857865356578259	1.0	y	3	no_noise	no_learn	cars	cars_48.0	34	y_3	03
68	28.0	6.869294057676598	1.0	y	3	no_noise	no_learn	cars	cars_28.0	35	y_3	03
69	42.0	5.514405009762413	1.0	y	3	no_noise	no_learn	cars	cars_42.0	36	y_3	03
70	20.0	5.7023476571666825	1.0	y	3	no_noise	no_learn	cars	cars_20.0	37	y_3	03
71	22.0	7.60775534053755	0.0	y	3	no_noise	no_learn	cars	cars_22.0	38	y_3	03
72	47.0	4.5172099122210065	0.0	y	3	no_noise	no_learn	cars	cars_47.0	39	y_3	03
73	40.0	10.094453327670637	1.0	y	3	no_noise	no_learn	cars	cars_40.0	40	y_3	03
74	35.0	4.085502520036243	1.0	y	3	no_noise	no_learn	cars	cars_35.0	41	y_3	03
75	39.0	2.8658063669099647	1.0	y	3	no_noise	no_learn	cars	cars_39.0	42	y_3	03
76	31.0	5.670128153487895	1.0	y	3	no_noise	no_learn	cars	cars_31.0	43	y_3	03
77	24.0	3.382344836863922	1.0	y	3	no_noise	no_learn	cars	cars_24.0	44	y_3	03
78	37.0	2.5024163006892195	0.0	y	3	no_noise	no_learn	cars	cars_37.0	45	y_3	03
79	38.0	2.663059167152824	0.0	y	3	no_noise	no_learn	cars	cars_38.0	46	y_3	03
80	27.0	4.799216069877731	1.0	y	3	no_noise	no_learn	cars	cars_27.0	47	y_3	03
83	49.0	6.773533099229097	1.0	y	3	noise	no_learn	cars	cars_49.0	48	y_3	03
84	63.0	5.2319871530453375	0.0	y	3	noise	no_learn	cars	cars_63.0	49	y_3	03
85	54.0	7.7921008889643435	1.0	y	3	noise	no_learn	cars	cars_54.0	50	y_3	03
86	53.0	3.5851580867674784	1.0	y	3	noise	no_learn	cars	cars_53.0	51	y_3	03
87	69.0	10.708096451042367	1.0	y	3	noise	no_learn	cars	cars_69.0	52	y_3	03
88	70.0	7.259667836657172	0.0	y	3	noise	no_learn	cars	cars_70.0	53	y_3	03
89	66.0	10.416841247060804	0.0	y	3	noise	no_learn	cars	cars_66.0	54	y_3	03
90	65.0	7.212291243045911	0.0	y	3	noise	no_learn	cars	cars_65.0	55	y_3	03
91	72.0	3.1403970788815063	1.0	y	3	noise	no_learn	cars	cars_72.0	56	y_3	03
92	64.0	4.746285591099877	0.0	y	3	noise	no_learn	cars	cars_64.0	57	y_3	03
93	60.0	3.4255906625367065	1.0	y	3	noise	no_learn	cars	cars_60.0	58	y_3	03
94	62.0	6.7727571113318845	1.0	y	3	noise	no_learn	cars	cars_62.0	59	y_3	03
95	56.0	4.514853583441436	1.0	y	3	noise	no_learn	cars	cars_56.0	60	y_3	03
96	61.0	6.0480148081987855	1.0	y	3	noise	no_learn	cars	cars_61.0	61	y_3	03
97	67.0	4.239853603703523	0.0	y	3	noise	no_learn	cars	cars_67.0	62	y_3	03
98	57.0	5.4922441732014695	0.0	y	3	noise	no_learn	cars	cars_57.0	63	y_3	03
99	58.0	7.817406603880954	1.0	y	3	noise	no_learn	cars	cars_58.0	64	y_3	03
100	50.0	2.526479624542844	1.0	y	3	noise	no_learn	cars	cars_50.0	65	y_3	03
101	59.0	9.987580951947166	1.0	y	3	noise	no_learn	cars	cars_59.0	66	y_3	03
102	51.0	3.0044593978018383	0.0	y	3	noise	no_learn	cars	cars_51.0	67	y_3	03
103	68.0	5.602072191592015	0.0	y	3	noise	no_learn	cars	cars_68.0	68	y_3	03
104	55.0	3.429775729367975	0.0	y	3	noise	no_learn	cars	cars_55.0	69	y_3	03
105	52.0	3.1390926898311586	0.0	y	3	noise	no_learn	cars	cars_52.0	70	y_3	03
106	71.0	2.4748827103430813	1.0	y	3	noise	no_learn	cars	cars_71.0	71	y_3	03
11	1.0	5.293357867787563	1.0	y	3	learn	learn	faces	faces_1.0	0	y_3	03
12	2.0	4.467687701948306	1.0	y	3	learn	learn	faces	faces_2.0	1	y_3	03
13	3.0	3.0947969505086803	1.0	y	3	learn	learn	faces	faces_3.0	2	y_3	03
18	4.0	3.5101332267877297	1.0	y	3	learn	learn	faces	faces_4.0	3	y_3	03
19	5.0	3.210540711606882	1.0	y	3	learn	learn	faces	faces_5.0	4	y_3	03
20	6.0	3.201328539902533	1.0	y	3	learn	learn	faces	faces_6.0	5	y_3	03
25	7.0	3.1563021968358957	1.0	y	3	learn	learn	faces	faces_7.0	6	y_3	03
26	8.0	2.6503208091980923	1.0	y	3	learn	learn	faces	faces_8.0	7	y_3	03
27	9.0	5.4994590371588865	1.0	y	3	learn	learn	faces	faces_9.0	8	y_3	03
32	10.0	2.9863097905763425	1.0	y	3	learn	learn	faces	faces_10.0	9	y_3	03
33	11.0	2.780040861942325	1.0	y	3	learn	learn	faces	faces_11.0	10	y_3	03
34	12.0	2.818729227634321	1.0	y	3	learn	learn	faces	faces_12.0	11	y_3	03
39	13.0	2.8143739702463786	1.0	y	3	learn	learn	faces	faces_13.0	12	y_3	03
40	14.0	2.7611043260003503	1.0	y	3	learn	learn	faces	faces_14.0	13	y_3	03
41	15.0	3.9868187413849223	1.0	y	3	learn	learn	faces	faces_15.0	14	y_3	03
46	16.0	4.0053812633177595	1.0	y	3	learn	learn	faces	faces_16.0	15	y_3	03
47	17.0	8.967002887566196	0.0	y	3	learn	learn	faces	faces_17.0	16	y_3	03
48	18.0	4.451269986246189	1.0	y	3	learn	learn	faces	faces_18.0	17	y_3	03
51	19.0	4.920311513553315	1.0	y	3	no_noise	no_learn	faces	faces_19.0	18	y_3	03
52	45.0	6.001196196484671	1.0	y	3	no_noise	no_learn	faces	faces_45.0	19	y_3	03
53	41.0	3.4145602883836546	1.0	y	3	no_noise	no_learn	faces	faces_41.0	20	y_3	03
54	29.0	2.9111589085441665	1.0	y	3	no_noise	no_learn	faces	faces_29.0	21	y_3	03
55	34.0	7.29363908742198	1.0	y	3	no_noise	no_learn	faces	faces_34.0	22	y_3	03
56	30.0	11.330566386068313	0.0	y	3	no_noise	no_learn	faces	faces_30.0	23	y_3	03
57	25.0	3.2369125487984998	1.0	y	3	no_noise	no_learn	faces	faces_25.0	24	y_3	03
58	21.0	5.42081438612695	1.0	y	3	no_noise	no_learn	faces	faces_21.0	25	y_3	03
59	43.0	7.197530453979198	0.0	y	3	no_noise	no_learn	faces	faces_43.0	26	y_3	03
60	26.0	6.974305683312196	1.0	y	3	no_noise	no_learn	faces	faces_26.0	27	y_3	03
61	32.0	3.0081302460221195	1.0	y	3	no_noise	no_learn	faces	faces_32.0	28	y_3	03
62	33.0	3.766585272356679	0.0	y	3	no_noise	no_learn	faces	faces_33.0	29	y_3	03
63	36.0	2.9153824708591856	0.0	y	3	no_noise	no_learn	faces	faces_36.0	30	y_3	03
64	46.0	6.442928622891487	0.0	y	3	no_noise	no_learn	faces	faces_46.0	31	y_3	03
65	44.0	5.899525978778911	0.0	y	3	no_noise	no_learn	faces	faces_44.0	32	y_3	03
66	23.0	9.843851785095467	0.0	y	3	no_noise	no_learn	faces	faces_23.0	33	y_3	03
67	48.0	2.7725589608962764	1.0	y	3	no_noise	no_learn	faces	faces_48.0	34	y_3	03
68	28.0	5.7860769536855505	0.0	y	3	no_noise	no_learn	faces	faces_28.0	35	y_3	03
69	42.0	6.116550140162872	1.0	y	3	no_noise	no_learn	faces	faces_42.0	36	y_3	03
70	20.0	5.1031415555899	0.0	y	3	no_noise	no_learn	faces	faces_20.0	37	y_3	03
71	22.0	4.346742188052303	1.0	y	3	no_noise	no_learn	faces	faces_22.0	38	y_3	03
72	47.0	3.666979628189438	1.0	y	3	no_noise	no_learn	faces	faces_47.0	39	y_3	03
73	40.0	5.2335715460831125	1.0	y	3	no_noise	no_learn	faces	faces_40.0	40	y_3	03
74	35.0	4.002156152266252	1.0	y	3	no_noise	no_learn	faces	faces_35.0	41	y_3	03
75	39.0	4.997724309128898	0.0	y	3	no_noise	no_learn	faces	faces_39.0	42	y_3	03
76	31.0	2.686489139006881	0.0	y	3	no_noise	no_learn	faces	faces_31.0	43	y_3	03
77	24.0	11.195170478260481	0.0	y	3	no_noise	no_learn	faces	faces_24.0	44	y_3	03
78	37.0	8.518544287229815	0.0	y	3	no_noise	no_learn	faces	faces_37.0	45	y_3	03
79	38.0	5.649567918593675	1.0	y	3	no_noise	no_learn	faces	faces_38.0	46	y_3	03
80	27.0	8.295217402228445	0.0	y	3	no_noise	no_learn	faces	faces_27.0	47	y_3	03
83	49.0	10.121031824823149	1.0	y	3	noise	no_learn	faces	faces_49.0	48	y_3	03
84	63.0	8.605255565435073	1.0	y	3	noise	no_learn	faces	faces_63.0	49	y_3	03
85	54.0	4.556952243719934	1.0	y	3	noise	no_learn	faces	faces_54.0	50	y_3	03
86	53.0	7.1138619398007	1.0	y	3	noise	no_learn	faces	faces_53.0	51	y_3	03
87	69.0	4.497802110525298	0.0	y	3	noise	no_learn	faces	faces_69.0	52	y_3	03
88	70.0	5.402000630514522	1.0	y	3	noise	no_learn	faces	faces_70.0	53	y_3	03
89	66.0	1.7534692534536591	0.0	y	3	noise	no_learn	faces	faces_66.0	54	y_3	03
90	65.0	1.6001717303752232	0.0	y	3	noise	no_learn	faces	faces_65.0	55	y_3	03
91	72.0	1.2429486405417265	1.0	y	3	noise	no_learn	faces	faces_72.0	56	y_3	03
92	64.0	0.8240590285677172	1.0	y	3	noise	no_learn	faces	faces_64.0	57	y_3	03
93	60.0	0.3694273736109608	0.0	y	3	noise	no_learn	faces	faces_60.0	58	y_3	03
94	62.0	1.3760745304971351	1.0	y	3	noise	no_learn	faces	faces_62.0	59	y_3	03
95	56.0	3.652619597361991	0.0	y	3	noise	no_learn	faces	faces_56.0	60	y_3	03
96	61.0	2.8742482237357763	0.0	y	3	noise	no_learn	faces	faces_61.0	61	y_3	03
97	67.0	3.4063546722572937	0.0	y	3	noise	no_learn	faces	faces_67.0	62	y_3	03
98	57.0	2.1925264463952767	1.0	y	3	noise	no_learn	faces	faces_57.0	63	y_3	03
99	58.0	3.4345544370717107	0.0	y	3	noise	no_learn	faces	faces_58.0	64	y_3	03
100	50.0	1.2045017833534075	0.0	y	3	noise	no_learn	faces	faces_50.0	65	y_3	03
101	59.0	1.1290234871066789	0.0	y	3	noise	no_learn	faces	faces_59.0	66	y_3	03
102	51.0	0.710358769798404	0.0	y	3	noise	no_learn	faces	faces_51.0	67	y_3	03
103	68.0	3.2510780761331266	0.0	y	3	noise	no_learn	faces	faces_68.0	68	y_3	03
104	55.0	2.4548180541387405	1.0	y	3	noise	no_learn	faces	faces_55.0	69	y_3	03
105	52.0	3.656831408425205	0.0	y	3	noise	no_learn	faces	faces_52.0	70	y_3	03
106	71.0	4.0189920504799375	1.0	y	3	noise	no_learn	faces	faces_71.0	71	y_3	03
11	1.0	4.868777328939359	1.0	y	4	no_noise	learn	bikes	bikes_1.0	0	y_4	04
12	2.0	3.029173155105127	1.0	y	4	no_noise	learn	bikes	bikes_2.0	1	y_4	04
13	3.0	3.7040173819245865	1.0	y	4	no_noise	learn	bikes	bikes_3.0	2	y_4	04
18	4.0	5.002620498563374	1.0	y	4	no_noise	learn	bikes	bikes_4.0	3	y_4	04
19	5.0	2.6122423922679445	1.0	y	4	no_noise	learn	bikes	bikes_5.0	4	y_4	04
20	6.0	2.9086756048072857	1.0	y	4	no_noise	learn	bikes	bikes_6.0	5	y_4	04
25	7.0	2.5720912648289413	1.0	y	4	no_noise	learn	bikes	bikes_7.0	6	y_4	04
26	8.0	2.9050319488496825	1.0	y	4	no_noise	learn	bikes	bikes_8.0	7	y_4	04
27	9.0	3.4284740043058264	1.0	y	4	no_noise	learn	bikes	bikes_9.0	8	y_4	04
32	10.0	3.0455570453809737	1.0	y	4	no_noise	learn	bikes	bikes_10.0	9	y_4	04
33	11.0	2.761114021875983	1.0	y	4	no_noise	learn	bikes	bikes_11.0	10	y_4	04
34	12.0	3.105383996035016	1.0	y	4	no_noise	learn	bikes	bikes_12.0	11	y_4	04
39	13.0	5.732359044367057	1.0	y	4	no_noise	learn	bikes	bikes_13.0	12	y_4	04
40	14.0	4.713463252035581	1.0	y	4	no_noise	learn	bikes	bikes_14.0	13	y_4	04
41	15.0	4.428412817467688	1.0	y	4	no_noise	learn	bikes	bikes_15.0	14	y_4	04
46	16.0	4.2877215844878265	1.0	y	4	no_noise	learn	bikes	bikes_16.0	15	y_4	04
47	17.0	4.513144026928785	1.0	y	4	no_noise	learn	bikes	bikes_17.0	16	y_4	04
48	18.0	3.0689936304906946	1.0	y	4	no_noise	learn	bikes	bikes_18.0	17	y_4	04
51	19.0	9.866024731638843	1.0	y	4	no_noise	no_learn	bikes	bikes_19.0	18	y_4	04
52	26.0	3.6374983740911375	1.0	y	4	no_noise	no_learn	bikes	bikes_26.0	19	y_4	04
53	34.0	7.163353865366844	0.0	y	4	no_noise	no_learn	bikes	bikes_34.0	20	y_4	04
54	31.0	7.514869009514314	1.0	y	4	no_noise	no_learn	bikes	bikes_31.0	21	y_4	04
55	48.0	4.548766112703106	1.0	y	4	no_noise	no_learn	bikes	bikes_48.0	22	y_4	04
56	36.0	2.229754146421328	1.0	y	4	no_noise	no_learn	bikes	bikes_36.0	23	y_4	04
57	39.0	3.5602781529350978	1.0	y	4	no_noise	no_learn	bikes	bikes_39.0	24	y_4	04
58	38.0	2.7858942861621467	0.0	y	4	no_noise	no_learn	bikes	bikes_38.0	25	y_4	04
59	30.0	3.332228728557766	0.0	y	4	no_noise	no_learn	bikes	bikes_30.0	26	y_4	04
60	45.0	3.4241463524335813	1.0	y	4	no_noise	no_learn	bikes	bikes_45.0	27	y_4	04
61	40.0	2.966381681876556	1.0	y	4	no_noise	no_learn	bikes	bikes_40.0	28	y_4	04
62	42.0	3.8363191294774883	1.0	y	4	no_noise	no_learn	bikes	bikes_42.0	29	y_4	04
63	25.0	2.3473678111040495	0.0	y	4	no_noise	no_learn	bikes	bikes_25.0	30	y_4	04
64	33.0	1.8015508229627808	1.0	y	4	no_noise	no_learn	bikes	bikes_33.0	31	y_4	04
65	28.0	3.14546299594258	1.0	y	4	no_noise	no_learn	bikes	bikes_28.0	32	y_4	04
66	46.0	3.7839987098086567	1.0	y	4	no_noise	no_learn	bikes	bikes_46.0	33	y_4	04
67	21.0	2.239278222226858	1.0	y	4	no_noise	no_learn	bikes	bikes_21.0	34	y_4	04
68	47.0	2.269516271444445	1.0	y	4	no_noise	no_learn	bikes	bikes_47.0	35	y_4	04
69	37.0	4.878435529535637	0.0	y	4	no_noise	no_learn	bikes	bikes_37.0	36	y_4	04
70	44.0	2.1975289431979945	1.0	y	4	no_noise	no_learn	bikes	bikes_44.0	37	y_4	04
71	20.0	2.713467709355428	0.0	y	4	no_noise	no_learn	bikes	bikes_20.0	38	y_4	04
72	41.0	4.8995389105743925	1.0	y	4	no_noise	no_learn	bikes	bikes_41.0	39	y_4	04
73	22.0	3.9568077651365456	0.0	y	4	no_noise	no_learn	bikes	bikes_22.0	40	y_4	04
74	24.0	5.336342023890211	1.0	y	4	no_noise	no_learn	bikes	bikes_24.0	41	y_4	04
75	35.0	4.637425030927716	1.0	y	4	no_noise	no_learn	bikes	bikes_35.0	42	y_4	04
76	32.0	2.7515506406184613	0.0	y	4	no_noise	no_learn	bikes	bikes_32.0	43	y_4	04
77	43.0	1.7063234368683882	1.0	y	4	no_noise	no_learn	bikes	bikes_43.0	44	y_4	04
78	23.0	4.065176139078176	1.0	y	4	no_noise	no_learn	bikes	bikes_23.0	45	y_4	04
79	29.0	1.500114472064979	0.0	y	4	no_noise	no_learn	bikes	bikes_29.0	46	y_4	04
80	27.0	1.4614103525700557	1.0	y	4	no_noise	no_learn	bikes	bikes_27.0	47	y_4	04
83	49.0	7.7006209045844125	1.0	y	4	noise	no_learn	bikes	bikes_49.0	48	y_4	04
84	66.0	5.715533879476425	0.0	y	4	noise	no_learn	bikes	bikes_66.0	49	y_4	04
85	55.0	4.691219202456068	1.0	y	4	noise	no_learn	bikes	bikes_55.0	50	y_4	04
86	63.0	3.3594718643871597	0.0	y	4	noise	no_learn	bikes	bikes_63.0	51	y_4	04
87	67.0	2.7213559489614454	1.0	y	4	noise	no_learn	bikes	bikes_67.0	52	y_4	04
88	56.0	4.447106004373836	1.0	y	4	noise	no_learn	bikes	bikes_56.0	53	y_4	04
89	71.0	4.501000668192773	1.0	y	4	noise	no_learn	bikes	bikes_71.0	54	y_4	04
90	64.0	4.807860361099301	0.0	y	4	noise	no_learn	bikes	bikes_64.0	55	y_4	04
91	50.0	5.868697907612841	1.0	y	4	noise	no_learn	bikes	bikes_50.0	56	y_4	04
92	69.0	4.148671050237681	1.0	y	4	noise	no_learn	bikes	bikes_69.0	57	y_4	04
93	58.0	3.0404720544311203	1.0	y	4	noise	no_learn	bikes	bikes_58.0	58	y_4	04
94	51.0	4.610475267753827	0.0	y	4	noise	no_learn	bikes	bikes_51.0	59	y_4	04
95	54.0	5.782123799208421	0.0	y	4	noise	no_learn	bikes	bikes_54.0	60	y_4	04
96	65.0	3.595696417652107	0.0	y	4	noise	no_learn	bikes	bikes_65.0	61	y_4	04
97	53.0	3.04281944088234	0.0	y	4	noise	no_learn	bikes	bikes_53.0	62	y_4	04
98	68.0	6.083332016397434	0.0	y	4	noise	no_learn	bikes	bikes_68.0	63	y_4	04
99	57.0	3.2397211176848937	0.0	y	4	noise	no_learn	bikes	bikes_57.0	64	y_4	04
100	62.0	4.044611688468649	0.0	y	4	noise	no_learn	bikes	bikes_62.0	65	y_4	04
101	60.0	2.9558149985550695	1.0	y	4	noise	no_learn	bikes	bikes_60.0	66	y_4	04
102	52.0	5.278860838842776	0.0	y	4	noise	no_learn	bikes	bikes_52.0	67	y_4	04
103	61.0	3.555554204853252	0.0	y	4	noise	no_learn	bikes	bikes_61.0	68	y_4	04
104	70.0	4.397758616707506	1.0	y	4	noise	no_learn	bikes	bikes_70.0	69	y_4	04
105	72.0	3.4891340684671377	1.0	y	4	noise	no_learn	bikes	bikes_72.0	70	y_4	04
106	59.0	5.478855490059687	1.0	y	4	noise	no_learn	bikes	bikes_59.0	71	y_4	04
11	1.0	6.0238332865319535	1.0	y	4	learn	learn	cars	cars_1.0	0	y_4	04
12	2.0	8.644772314049987	1.0	y	4	learn	learn	cars	cars_2.0	1	y_4	04
13	3.0	6.067794611587488	1.0	y	4	learn	learn	cars	cars_3.0	2	y_4	04
18	4.0	5.228785287280517	1.0	y	4	learn	learn	cars	cars_4.0	3	y_4	04
19	5.0	4.390036513549603	1.0	y	4	learn	learn	cars	cars_5.0	4	y_4	04
20	6.0	2.91818711907581	1.0	y	4	learn	learn	cars	cars_6.0	5	y_4	04
25	7.0	2.9549794537833804	1.0	y	4	learn	learn	cars	cars_7.0	6	y_4	04
26	8.0	3.108843686267392	1.0	y	4	learn	learn	cars	cars_8.0	7	y_4	04
27	9.0	4.984450438863861	1.0	y	4	learn	learn	cars	cars_9.0	8	y_4	04
32	10.0	6.051875092945012	1.0	y	4	learn	learn	cars	cars_10.0	9	y_4	04
33	11.0	5.1788292729179375	1.0	y	4	learn	learn	cars	cars_11.0	10	y_4	04
34	12.0	2.6330771185139383	1.0	y	4	learn	learn	cars	cars_12.0	11	y_4	04
39	13.0	5.5187995547539686	1.0	y	4	learn	learn	cars	cars_13.0	12	y_4	04
40	14.0	3.412436974517732	1.0	y	4	learn	learn	cars	cars_14.0	13	y_4	04
41	15.0	2.529242243555018	1.0	y	4	learn	learn	cars	cars_15.0	14	y_4	04
46	16.0	3.696360517713402	1.0	y	4	learn	learn	cars	cars_16.0	15	y_4	04
47	17.0	3.1227383662944703	1.0	y	4	learn	learn	cars	cars_17.0	16	y_4	04
48	18.0	2.739172664800208	1.0	y	4	learn	learn	cars	cars_18.0	17	y_4	04
51	19.0	6.11311136693439	1.0	y	4	no_noise	no_learn	cars	cars_19.0	18	y_4	04
52	26.0	7.3710685936866875	1.0	y	4	no_noise	no_learn	cars	cars_26.0	19	y_4	04
53	34.0	7.3046865471214915	0.0	y	4	no_noise	no_learn	cars	cars_34.0	20	y_4	04
54	31.0	4.263319381923793	0.0	y	4	no_noise	no_learn	cars	cars_31.0	21	y_4	04
55	48.0	5.9367952117045215	1.0	y	4	no_noise	no_learn	cars	cars_48.0	22	y_4	04
56	36.0	3.318125770154438	1.0	y	4	no_noise	no_learn	cars	cars_36.0	23	y_4	04
57	39.0	6.4643161195717775	1.0	y	4	no_noise	no_learn	cars	cars_39.0	24	y_4	04
58	38.0	4.617589959847464	1.0	y	4	no_noise	no_learn	cars	cars_38.0	25	y_4	04
59	30.0	6.231160228069713	1.0	y	4	no_noise	no_learn	cars	cars_30.0	26	y_4	04
60	45.0	7.9550775148090915	1.0	y	4	no_noise	no_learn	cars	cars_45.0	27	y_4	04
61	40.0	4.8668205657468215	0.0	y	4	no_noise	no_learn	cars	cars_40.0	28	y_4	04
62	42.0	3.436543778372652	1.0	y	4	no_noise	no_learn	cars	cars_42.0	29	y_4	04
63	25.0	3.2021969721836285	1.0	y	4	no_noise	no_learn	cars	cars_25.0	30	y_4	04
64	33.0	3.900297465284893	1.0	y	4	no_noise	no_learn	cars	cars_33.0	31	y_4	04
65	28.0	6.423868783002035	0.0	y	4	no_noise	no_learn	cars	cars_28.0	32	y_4	04
66	46.0	5.381784394600801	1.0	y	4	no_noise	no_learn	cars	cars_46.0	33	y_4	04
67	21.0	4.7789696379559246	0.0	y	4	no_noise	no_learn	cars	cars_21.0	34	y_4	04
68	47.0	3.9130089296313595	0.0	y	4	no_noise	no_learn	cars	cars_47.0	35	y_4	04
69	37.0	4.445301195250977	0.0	y	4	no_noise	no_learn	cars	cars_37.0	36	y_4	04
70	44.0	5.2578295853354575	0.0	y	4	no_noise	no_learn	cars	cars_44.0	37	y_4	04
71	20.0	3.282703453328395	1.0	y	4	no_noise	no_learn	cars	cars_20.0	38	y_4	04
72	41.0	4.608676131581888	0.0	y	4	no_noise	no_learn	cars	cars_41.0	39	y_4	04
73	22.0	3.5972021811685413	0.0	y	4	no_noise	no_learn	cars	cars_22.0	40	y_4	04
74	24.0	5.23598912576108	0.0	y	4	no_noise	no_learn	cars	cars_24.0	41	y_4	04
75	35.0	6.7322423436426115	0.0	y	4	no_noise	no_learn	cars	cars_35.0	42	y_4	04
76	32.0	3.784645831535272	0.0	y	4	no_noise	no_learn	cars	cars_32.0	43	y_4	04
77	43.0	4.7109108288950665	1.0	y	4	no_noise	no_learn	cars	cars_43.0	44	y_4	04
78	23.0	5.721537888632156	0.0	y	4	no_noise	no_learn	cars	cars_23.0	45	y_4	04
79	29.0	4.043052437120424	1.0	y	4	no_noise	no_learn	cars	cars_29.0	46	y_4	04
80	27.0	4.4248728954871694	1.0	y	4	no_noise	no_learn	cars	cars_27.0	47	y_4	04
83	49.0	5.0596721601104955	1.0	y	4	noise	no_learn	cars	cars_49.0	48	y_4	04
84	66.0	6.992805481368122	1.0	y	4	noise	no_learn	cars	cars_66.0	49	y_4	04
85	55.0	5.8053962739249965	1.0	y	4	noise	no_learn	cars	cars_55.0	50	y_4	04
86	63.0	7.171324362775523	0.0	y	4	noise	no_learn	cars	cars_63.0	51	y_4	04
87	67.0	3.3596651499628933	1.0	y	4	noise	no_learn	cars	cars_67.0	52	y_4	04
88	56.0	5.904933887823972	0.0	y	4	noise	no_learn	cars	cars_56.0	53	y_4	04
89	71.0	4.410657288466608	1.0	y	4	noise	no_learn	cars	cars_71.0	54	y_4	04
90	64.0	6.394903095851988	0.0	y	4	noise	no_learn	cars	cars_64.0	55	y_4	04
91	50.0	8.883909522900467	1.0	y	4	noise	no_learn	cars	cars_50.0	56	y_4	04
92	69.0	2.7846462367460845	1.0	y	4	noise	no_learn	cars	cars_69.0	57	y_4	04
93	58.0	3.311136693422668	1.0	y	4	noise	no_learn	cars	cars_58.0	58	y_4	04
94	51.0	4.68063468985747	0.0	y	4	noise	no_learn	cars	cars_51.0	59	y_4	04
95	54.0	5.8711680729502405	1.0	y	4	noise	no_learn	cars	cars_54.0	60	y_4	04
96	65.0	4.219065494635288	0.0	y	4	noise	no_learn	cars	cars_65.0	61	y_4	04
97	53.0	6.52216564128139	1.0	y	4	noise	no_learn	cars	cars_53.0	62	y_4	04
98	68.0	5.151789552935043	0.0	y	4	noise	no_learn	cars	cars_68.0	63	y_4	04
99	57.0	5.651884169667937	1.0	y	4	noise	no_learn	cars	cars_57.0	64	y_4	04
100	62.0	4.022215279609553	0.0	y	4	noise	no_learn	cars	cars_62.0	65	y_4	04
101	60.0	4.618647154953578	1.0	y	4	noise	no_learn	cars	cars_60.0	66	y_4	04
102	52.0	4.365860013428573	0.0	y	4	noise	no_learn	cars	cars_52.0	67	y_4	04
103	61.0	4.002541887658482	1.0	y	4	noise	no_learn	cars	cars_61.0	68	y_4	04
104	70.0	6.2158533882320635	0.0	y	4	noise	no_learn	cars	cars_70.0	69	y_4	04
105	72.0	4.044475537623839	1.0	y	4	noise	no_learn	cars	cars_72.0	70	y_4	04
106	59.0	4.935583631264309	0.0	y	4	noise	no_learn	cars	cars_59.0	71	y_4	04
11	1.0	2.9662224340117973	1.0	y	4	learn	learn	faces	faces_1.0	0	y_4	04
12	2.0	2.450250845776281	1.0	y	4	learn	learn	faces	faces_2.0	1	y_4	04
13	3.0	2.429533630676815	1.0	y	4	learn	learn	faces	faces_3.0	2	y_4	04
18	4.0	2.8213992660012077	1.0	y	4	learn	learn	faces	faces_4.0	3	y_4	04
19	5.0	3.011020114261555	1.0	y	4	learn	learn	faces	faces_5.0	4	y_4	04
20	6.0	2.403873653636765	1.0	y	4	learn	learn	faces	faces_6.0	5	y_4	04
25	7.0	2.3035406108392635	1.0	y	4	learn	learn	faces	faces_7.0	6	y_4	04
26	8.0	1.4504445365628271	1.0	y	4	learn	learn	faces	faces_8.0	7	y_4	04
27	9.0	2.3686697454586465	1.0	y	4	learn	learn	faces	faces_9.0	8	y_4	04
32	10.0	2.1100812002023304	1.0	y	4	learn	learn	faces	faces_10.0	9	y_4	04
33	11.0	3.051518912608117	1.0	y	4	learn	learn	faces	faces_11.0	10	y_4	04
34	12.0	2.74610055469293	1.0	y	4	learn	learn	faces	faces_12.0	11	y_4	04
39	13.0	3.1224146028262116	1.0	y	4	learn	learn	faces	faces_13.0	12	y_4	04
40	14.0	3.2384045876351597	1.0	y	4	learn	learn	faces	faces_14.0	13	y_4	04
41	15.0	2.4726091648153665	1.0	y	4	learn	learn	faces	faces_15.0	14	y_4	04
46	16.0	3.6127934790229124	1.0	y	4	learn	learn	faces	faces_16.0	15	y_4	04
47	17.0	2.700156127740229	1.0	y	4	learn	learn	faces	faces_17.0	16	y_4	04
48	18.0	2.8172381557878907	1.0	y	4	learn	learn	faces	faces_18.0	17	y_4	04
51	19.0	4.809444330309817	1.0	y	4	no_noise	no_learn	faces	faces_19.0	18	y_4	04
52	26.0	4.224678070109803	1.0	y	4	no_noise	no_learn	faces	faces_26.0	19	y_4	04
53	34.0	3.0358716956579883	0.0	y	4	no_noise	no_learn	faces	faces_34.0	20	y_4	04
54	31.0	5.579603873978158	0.0	y	4	no_noise	no_learn	faces	faces_31.0	21	y_4	04
55	48.0	6.543246735723188	0.0	y	4	no_noise	no_learn	faces	faces_48.0	22	y_4	04
56	36.0	3.6184952008852633	0.0	y	4	no_noise	no_learn	faces	faces_36.0	23	y_4	04
57	39.0	3.1369766651223467	0.0	y	4	no_noise	no_learn	faces	faces_39.0	24	y_4	04
58	38.0	2.726158507949549	1.0	y	4	no_noise	no_learn	faces	faces_38.0	25	y_4	04
59	30.0	4.541860914617247	0.0	y	4	no_noise	no_learn	faces	faces_30.0	26	y_4	04
60	45.0	3.55252201206622	0.0	y	4	no_noise	no_learn	faces	faces_45.0	27	y_4	04
61	40.0	3.2468888924004204	0.0	y	4	no_noise	no_learn	faces	faces_40.0	28	y_4	04
62	42.0	2.938603262515244	0.0	y	4	no_noise	no_learn	faces	faces_42.0	29	y_4	04
63	25.0	3.0753392323922526	1.0	y	4	no_noise	no_learn	faces	faces_25.0	30	y_4	04
64	33.0	3.567672035304895	0.0	y	4	no_noise	no_learn	faces	faces_33.0	31	y_4	04
65	28.0	2.7243334382828834	1.0	y	4	no_noise	no_learn	faces	faces_28.0	32	y_4	04
66	46.0	3.5700271207615515	0.0	y	4	no_noise	no_learn	faces	faces_46.0	33	y_4	04
67	21.0	2.7900136596581437	1.0	y	4	no_noise	no_learn	faces	faces_21.0	34	y_4	04
68	47.0	4.0163206773831925	1.0	y	4	no_noise	no_learn	faces	faces_47.0	35	y_4	04
69	37.0	3.8301728913129414	1.0	y	4	no_noise	no_learn	faces	faces_37.0	36	y_4	04
70	44.0	2.981487537132125	1.0	y	4	no_noise	no_learn	faces	faces_44.0	37	y_4	04
71	20.0	4.087068060430283	0.0	y	4	no_noise	no_learn	faces	faces_20.0	38	y_4	04
72	41.0	1.988697048565882	1.0	y	4	no_noise	no_learn	faces	faces_41.0	39	y_4	04
73	22.0	3.0335056695075764	0.0	y	4	no_noise	no_learn	faces	faces_22.0	40	y_4	04
74	24.0	2.844206153450614	1.0	y	4	no_noise	no_learn	faces	faces_24.0	41	y_4	04
75	35.0	1.977640060117665	1.0	y	4	no_noise	no_learn	faces	faces_35.0	42	y_4	04
76	32.0	2.9550584698999955	1.0	y	4	no_noise	no_learn	faces	faces_32.0	43	y_4	04
77	43.0	3.126775481988261	1.0	y	4	no_noise	no_learn	faces	faces_43.0	44	y_4	04
78	23.0	3.1564989134267307	0.0	y	4	no_noise	no_learn	faces	faces_23.0	45	y_4	04
79	29.0	2.8709184630679374	1.0	y	4	no_noise	no_learn	faces	faces_29.0	46	y_4	04
80	27.0	2.1543334666475857	1.0	y	4	no_noise	no_learn	faces	faces_27.0	47	y_4	04
83	49.0	4.2779786948240135	1.0	y	4	noise	no_learn	faces	faces_49.0	48	y_4	04
84	66.0	3.502031524593804	1.0	y	4	noise	no_learn	faces	faces_66.0	49	y_4	04
85	55.0	3.7413680971831127	0.0	y	4	noise	no_learn	faces	faces_55.0	50	y_4	04
86	63.0	4.606517978597368	1.0	y	4	noise	no_learn	faces	faces_63.0	51	y_4	04
87	67.0	4.683010035857478	0.0	y	4	noise	no_learn	faces	faces_67.0	52	y_4	04
88	56.0	3.4976592995280957	0.0	y	4	noise	no_learn	faces	faces_56.0	53	y_4	04
89	71.0	4.577724506058075	1.0	y	4	noise	no_learn	faces	faces_71.0	54	y_4	04
90	64.0	3.4605585993649584	0.0	y	4	noise	no_learn	faces	faces_64.0	55	y_4	04
91	50.0	3.297563750810696	0.0	y	4	noise	no_learn	faces	faces_50.0	56	y_4	04
92	69.0	2.7930888047940243	1.0	y	4	noise	no_learn	faces	faces_69.0	57	y_4	04
93	58.0	3.7214353702875087	1.0	y	4	noise	no_learn	faces	faces_58.0	58	y_4	04
94	51.0	3.1293959805507257	1.0	y	4	noise	no_learn	faces	faces_51.0	59	y_4	04
95	54.0	4.77145824444051	0.0	y	4	noise	no_learn	faces	faces_54.0	60	y_4	04
96	65.0	3.9177867707576297	0.0	y	4	noise	no_learn	faces	faces_65.0	61	y_4	04
97	53.0	3.0809493766037117	1.0	y	4	noise	no_learn	faces	faces_53.0	62	y_4	04
98	68.0	4.260587045166177	1.0	y	4	noise	no_learn	faces	faces_68.0	63	y_4	04
99	57.0	3.2185666800796757	1.0	y	4	noise	no_learn	faces	faces_57.0	64	y_4	04
100	62.0	3.2199140061538856	1.0	y	4	noise	no_learn	faces	faces_62.0	65	y_4	04
101	60.0	3.822717822105915	0.0	y	4	noise	no_learn	faces	faces_60.0	66	y_4	04
102	52.0	5.004860909349191	1.0	y	4	noise	no_learn	faces	faces_52.0	67	y_4	04
103	61.0	3.032609343108561	0.0	y	4	noise	no_learn	faces	faces_61.0	68	y_4	04
104	70.0	2.9990659889926974	0.0	y	4	noise	no_learn	faces	faces_70.0	69	y_4	04
105	72.0	4.772648753915746	0.0	y	4	noise	no_learn	faces	faces_72.0	70	y_4	04
106	59.0	3.2686041418219247	0.0	y	4	noise	no_learn	faces	faces_59.0	71	y_4	04
11	1.0	5.328376794223004	1.0	n	5	no_noise	learn	bikes	bikes_1.0	0	n_5	05
12	2.0	19.208993573760377	0.0	n	5	no_noise	learn	bikes	bikes_2.0	1	n_5	05
13	3.0	24.56586074280858	0.0	n	5	no_noise	learn	bikes	bikes_3.0	2	n_5	05
18	4.0	4.6764115823843895	1.0	n	5	no_noise	learn	bikes	bikes_4.0	3	n_5	05
19	5.0	13.693901698277841	1.0	n	5	no_noise	learn	bikes	bikes_5.0	4	n_5	05
20	6.0	156.16275131683324	1.0	n	5	no_noise	learn	bikes	bikes_6.0	5	n_5	05
25	7.0	4.2308048581544435	1.0	n	5	no_noise	learn	bikes	bikes_7.0	6	n_5	05
26	8.0	18.21720030909455	0.0	n	5	no_noise	learn	bikes	bikes_8.0	7	n_5	05
27	9.0	47.88349256093716	1.0	n	5	no_noise	learn	bikes	bikes_9.0	8	n_5	05
32	10.0	5.8516899926289625	0.0	n	5	no_noise	learn	bikes	bikes_10.0	9	n_5	05
33	11.0	12.449876836160913	0.0	n	5	no_noise	learn	bikes	bikes_11.0	10	n_5	05
34	12.0	20.679216857095522	0.0	n	5	no_noise	learn	bikes	bikes_12.0	11	n_5	05
39	13.0	6.429734210048991	0.0	n	5	no_noise	learn	bikes	bikes_13.0	12	n_5	05
40	14.0	7.561917230821563	0.0	n	5	no_noise	learn	bikes	bikes_14.0	13	n_5	05
41	15.0	4.275286473939559	0.0	n	5	no_noise	learn	bikes	bikes_15.0	14	n_5	05
46	16.0	37.32199310250144	0.0	n	5	no_noise	learn	bikes	bikes_16.0	15	n_5	05
47	17.0	44.26235416967938	1.0	n	5	no_noise	learn	bikes	bikes_17.0	16	n_5	05
48	18.0	23.996783436277838	1.0	n	5	no_noise	learn	bikes	bikes_18.0	17	n_5	05
51	19.0	84.47468019746701	0.0	n	5	no_noise	no_learn	bikes	bikes_19.0	18	n_5	05
52	24.0	34.063191011126044	1.0	n	5	no_noise	no_learn	bikes	bikes_24.0	19	n_5	05
53	45.0	4.9237458015086295	0.0	n	5	no_noise	no_learn	bikes	bikes_45.0	20	n_5	05
54	33.0	19.605370826682698	1.0	n	5	no_noise	no_learn	bikes	bikes_33.0	21	n_5	05
55	22.0	7.285922853527154	0.0	n	5	no_noise	no_learn	bikes	bikes_22.0	22	n_5	05
56	30.0	11.049509066795508	0.0	n	5	no_noise	no_learn	bikes	bikes_30.0	23	n_5	05
57	29.0	3.363919053461359	0.0	n	5	no_noise	no_learn	bikes	bikes_29.0	24	n_5	05
58	48.0	4.839424665427941	1.0	n	5	no_noise	no_learn	bikes	bikes_48.0	25	n_5	05
59	44.0	3.699284519203502	1.0	n	5	no_noise	no_learn	bikes	bikes_44.0	26	n_5	05
60	32.0	4.468296100534643	1.0	n	5	no_noise	no_learn	bikes	bikes_32.0	27	n_5	05
61	37.0	9.154317258213267	1.0	n	5	no_noise	no_learn	bikes	bikes_37.0	28	n_5	05
62	47.0	10.402325748191288	1.0	n	5	no_noise	no_learn	bikes	bikes_47.0	29	n_5	05
63	26.0	8.839538124464525	0.0	n	5	no_noise	no_learn	bikes	bikes_26.0	30	n_5	05
64	35.0	20.07517755326262	0.0	n	5	no_noise	no_learn	bikes	bikes_35.0	31	n_5	05
65	38.0	11.555848793141196	0.0	n	5	no_noise	no_learn	bikes	bikes_38.0	32	n_5	05
66	41.0	4.359500634358483	0.0	n	5	no_noise	no_learn	bikes	bikes_41.0	33	n_5	05
67	23.0	4.009423583514945	1.0	n	5	no_noise	no_learn	bikes	bikes_23.0	34	n_5	05
68	25.0	9.158541986529599	1.0	n	5	no_noise	no_learn	bikes	bikes_25.0	35	n_5	05
69	21.0	9.874907358669587	0.0	n	5	no_noise	no_learn	bikes	bikes_21.0	36	n_5	05
70	27.0	17.015066549804033	0.0	n	5	no_noise	no_learn	bikes	bikes_27.0	37	n_5	05
71	34.0	4.052709422083352	1.0	n	5	no_noise	no_learn	bikes	bikes_34.0	38	n_5	05
72	20.0	5.081842866526131	1.0	n	5	no_noise	no_learn	bikes	bikes_20.0	39	n_5	05
73	36.0	32.611563258884416	1.0	n	5	no_noise	no_learn	bikes	bikes_36.0	40	n_5	05
74	40.0	4.5919741507896115	1.0	n	5	no_noise	no_learn	bikes	bikes_40.0	41	n_5	05
75	46.0	5.206675767702109	0.0	n	5	no_noise	no_learn	bikes	bikes_46.0	42	n_5	05
76	42.0	8.232907497253109	1.0	n	5	no_noise	no_learn	bikes	bikes_42.0	43	n_5	05
77	31.0	3.5026389356571603	1.0	n	5	no_noise	no_learn	bikes	bikes_31.0	44	n_5	05
78	43.0	6.455366227539344	1.0	n	5	no_noise	no_learn	bikes	bikes_43.0	45	n_5	05
79	28.0	1.8733614792781736	1.0	n	5	no_noise	no_learn	bikes	bikes_28.0	46	n_5	05
80	39.0	3.0678201398714013	1.0	n	5	no_noise	no_learn	bikes	bikes_39.0	47	n_5	05
83	49.0	22.345717792524734	1.0	n	5	noise	no_learn	bikes	bikes_49.0	48	n_5	05
84	61.0	4.419081622027079	1.0	n	5	noise	no_learn	bikes	bikes_61.0	49	n_5	05
85	68.0	5.526444667850228	1.0	n	5	noise	no_learn	bikes	bikes_68.0	50	n_5	05
86	59.0	5.393772557581541	0.0	n	5	noise	no_learn	bikes	bikes_59.0	51	n_5	05
87	57.0	2.761629044865913	0.0	n	5	noise	no_learn	bikes	bikes_57.0	52	n_5	05
88	56.0	4.295534454875451	0.0	n	5	noise	no_learn	bikes	bikes_56.0	53	n_5	05
89	58.0	2.607870977622952	0.0	n	5	noise	no_learn	bikes	bikes_58.0	54	n_5	05
90	51.0	2.513448340276227	0.0	n	5	noise	no_learn	bikes	bikes_51.0	55	n_5	05
91	72.0	3.971403865145476	0.0	n	5	noise	no_learn	bikes	bikes_72.0	56	n_5	05
92	66.0	1.7363070136725582	0.0	n	5	noise	no_learn	bikes	bikes_66.0	57	n_5	05
93	60.0	2.64794754626746	0.0	n	5	noise	no_learn	bikes	bikes_60.0	58	n_5	05
94	71.0	1.5668632344495563	0.0	n	5	noise	no_learn	bikes	bikes_71.0	59	n_5	05
95	62.0	1.9672322194492156	0.0	n	5	noise	no_learn	bikes	bikes_62.0	60	n_5	05
96	53.0	9.634975126131396	0.0	n	5	noise	no_learn	bikes	bikes_53.0	61	n_5	05
97	65.0	3.6991366172424014	0.0	n	5	noise	no_learn	bikes	bikes_65.0	62	n_5	05
98	63.0	3.885648282655893	0.0	n	5	noise	no_learn	bikes	bikes_63.0	63	n_5	05
99	50.0	2.9572048717691364	1.0	n	5	noise	no_learn	bikes	bikes_50.0	64	n_5	05
100	67.0	1.9251064995405611	0.0	n	5	noise	no_learn	bikes	bikes_67.0	65	n_5	05
101	70.0	4.251420365329977	0.0	n	5	noise	no_learn	bikes	bikes_70.0	66	n_5	05
102	64.0	2.2549169297508342	0.0	n	5	noise	no_learn	bikes	bikes_64.0	67	n_5	05
103	69.0	6.914335184741503	0.0	n	5	noise	no_learn	bikes	bikes_69.0	68	n_5	05
104	54.0	2.146140913693671	0.0	n	5	noise	no_learn	bikes	bikes_54.0	69	n_5	05
105	52.0	1.5087774748153606	0.0	n	5	noise	no_learn	bikes	bikes_52.0	70	n_5	05
106	55.0	4.508846765869748	0.0	n	5	noise	no_learn	bikes	bikes_55.0	71	n_5	05
11	1.0	11.486799243552015	1.0	n	5	learn	learn	cars	cars_1.0	0	n_5	05
12	2.0	13.432372132676392	0.0	n	5	learn	learn	cars	cars_2.0	1	n_5	05
13	3.0	14.610495123086364	0.0	n	5	learn	learn	cars	cars_3.0	2	n_5	05
18	4.0	8.080555511656714	0.0	n	5	learn	learn	cars	cars_4.0	3	n_5	05
19	5.0	6.4338738440856105	1.0	n	5	learn	learn	cars	cars_5.0	4	n_5	05
20	6.0	5.177633090490417	0.0	n	5	learn	learn	cars	cars_6.0	5	n_5	05
25	7.0	7.176648833336003	1.0	n	5	learn	learn	cars	cars_7.0	6	n_5	05
26	8.0	6.473054896750909	0.0	n	5	learn	learn	cars	cars_8.0	7	n_5	05
27	9.0	7.686083965360013	0.0	n	5	learn	learn	cars	cars_9.0	8	n_5	05
32	10.0	3.3060241481362027	1.0	n	5	learn	learn	cars	cars_10.0	9	n_5	05
33	11.0	3.504586784210914	1.0	n	5	learn	learn	cars	cars_11.0	10	n_5	05
34	12.0	2.128272736077633	1.0	n	5	learn	learn	cars	cars_12.0	11	n_5	05
39	13.0	4.0880555592702885	1.0	n	5	learn	learn	cars	cars_13.0	12	n_5	05
40	14.0	7.132525018729211	0.0	n	5	learn	learn	cars	cars_14.0	13	n_5	05
41	15.0	2.1627091749069223	0.0	n	5	learn	learn	cars	cars_15.0	14	n_5	05
46	16.0	19.13619460818336	1.0	n	5	learn	learn	cars	cars_16.0	15	n_5	05
47	17.0	6.04518182013453	1.0	n	5	learn	learn	cars	cars_17.0	16	n_5	05
48	18.0	2.851245881538489	1.0	n	5	learn	learn	cars	cars_18.0	17	n_5	05
51	19.0	23.046983387570435	1.0	n	5	no_noise	no_learn	cars	cars_19.0	18	n_5	05
52	24.0	16.634990118933274	0.0	n	5	no_noise	no_learn	cars	cars_24.0	19	n_5	05
53	45.0	34.13233254357692	0.0	n	5	no_noise	no_learn	cars	cars_45.0	20	n_5	05
54	33.0	20.250716108876077	1.0	n	5	no_noise	no_learn	cars	cars_33.0	21	n_5	05
55	22.0	9.57573816247532	1.0	n	5	no_noise	no_learn	cars	cars_22.0	22	n_5	05
56	30.0	5.780780930454058	1.0	n	5	no_noise	no_learn	cars	cars_30.0	23	n_5	05
57	29.0	4.024341420936253	0.0	n	5	no_noise	no_learn	cars	cars_29.0	24	n_5	05
58	48.0	5.9530040508907405	0.0	n	5	no_noise	no_learn	cars	cars_48.0	25	n_5	05
59	44.0	3.8736410747624177	1.0	n	5	no_noise	no_learn	cars	cars_44.0	26	n_5	05
60	32.0	6.235040121951897	0.0	n	5	no_noise	no_learn	cars	cars_32.0	27	n_5	05
61	37.0	1.7096364407734654	0.0	n	5	no_noise	no_learn	cars	cars_37.0	28	n_5	05
62	47.0	9.067970473097377	0.0	n	5	no_noise	no_learn	cars	cars_47.0	29	n_5	05
63	26.0	3.03170693854554	0.0	n	5	no_noise	no_learn	cars	cars_26.0	30	n_5	05
64	35.0	9.49357193769174	0.0	n	5	no_noise	no_learn	cars	cars_35.0	31	n_5	05
65	38.0	11.764931918496584	0.0	n	5	no_noise	no_learn	cars	cars_38.0	32	n_5	05
66	41.0	5.235364695843599	0.0	n	5	no_noise	no_learn	cars	cars_41.0	33	n_5	05
67	23.0	4.203028464846284	0.0	n	5	no_noise	no_learn	cars	cars_23.0	34	n_5	05
68	25.0	3.9835168330646415	1.0	n	5	no_noise	no_learn	cars	cars_25.0	35	n_5	05
69	21.0	4.04285753070144	0.0	n	5	no_noise	no_learn	cars	cars_21.0	36	n_5	05
70	27.0	1.1761309738722048	0.0	n	5	no_noise	no_learn	cars	cars_27.0	37	n_5	05
71	34.0	3.8423032833015895	0.0	n	5	no_noise	no_learn	cars	cars_34.0	38	n_5	05
72	20.0	1.3967654449152178	0.0	n	5	no_noise	no_learn	cars	cars_20.0	39	n_5	05
73	36.0	6.306522557479184	0.0	n	5	no_noise	no_learn	cars	cars_36.0	40	n_5	05
74	40.0	4.312319503889739	1.0	n	5	no_noise	no_learn	cars	cars_40.0	41	n_5	05
75	46.0	1.7704022649668332	0.0	n	5	no_noise	no_learn	cars	cars_46.0	42	n_5	05
76	42.0	7.967549094333662	1.0	n	5	no_noise	no_learn	cars	cars_42.0	43	n_5	05
77	31.0	1.1846075796274818	1.0	n	5	no_noise	no_learn	cars	cars_31.0	44	n_5	05
78	43.0	2.8468319197527308	0.0	n	5	no_noise	no_learn	cars	cars_43.0	45	n_5	05
79	28.0	1.34083216531144	0.0	n	5	no_noise	no_learn	cars	cars_28.0	46	n_5	05
80	39.0	10.534412733992212	0.0	n	5	no_noise	no_learn	cars	cars_39.0	47	n_5	05
83	49.0	12.476767843763811	0.0	n	5	noise	no_learn	cars	cars_49.0	48	n_5	05
84	61.0	2.135382160431618	0.0	n	5	noise	no_learn	cars	cars_61.0	49	n_5	05
85	68.0	3.7229459963346017	0.0	n	5	noise	no_learn	cars	cars_68.0	50	n_5	05
86	59.0	2.570303474563844	0.0	n	5	noise	no_learn	cars	cars_59.0	51	n_5	05
87	57.0	5.155273961030616	0.0	n	5	noise	no_learn	cars	cars_57.0	52	n_5	05
88	56.0	9.276740775680082	0.0	n	5	noise	no_learn	cars	cars_56.0	53	n_5	05
89	58.0	1.979079774264392	0.0	n	5	noise	no_learn	cars	cars_58.0	54	n_5	05
90	51.0	2.529781984405417	0.0	n	5	noise	no_learn	cars	cars_51.0	55	n_5	05
91	72.0	3.594660293510969	0.0	n	5	noise	no_learn	cars	cars_72.0	56	n_5	05
92	66.0	2.566540281401103	0.0	n	5	noise	no_learn	cars	cars_66.0	57	n_5	05
93	60.0	3.2208986685182026	0.0	n	5	noise	no_learn	cars	cars_60.0	58	n_5	05
94	71.0	1.6644590779578718	0.0	n	5	noise	no_learn	cars	cars_71.0	59	n_5	05
95	62.0	3.7783557435213884	1.0	n	5	noise	no_learn	cars	cars_62.0	60	n_5	05
96	53.0	2.428336232616857	0.0	n	5	noise	no_learn	cars	cars_53.0	61	n_5	05
97	65.0	1.8995575502740396	1.0	n	5	noise	no_learn	cars	cars_65.0	62	n_5	05
98	63.0	3.10338306486301	0.0	n	5	noise	no_learn	cars	cars_63.0	63	n_5	05
99	50.0	10.924821231103122	1.0	n	5	noise	no_learn	cars	cars_50.0	64	n_5	05
100	67.0	1.4074366726345031	0.0	n	5	noise	no_learn	cars	cars_67.0	65	n_5	05
101	70.0	4.4357094492334	1.0	n	5	noise	no_learn	cars	cars_70.0	66	n_5	05
102	64.0	3.016486003409227	0.0	n	5	noise	no_learn	cars	cars_64.0	67	n_5	05
103	69.0	1.8371068593696689	0.0	n	5	noise	no_learn	cars	cars_69.0	68	n_5	05
104	54.0	1.870933050657186	0.0	n	5	noise	no_learn	cars	cars_54.0	69	n_5	05
105	52.0	6.341693238366133	0.0	n	5	noise	no_learn	cars	cars_52.0	70	n_5	05
106	55.0	5.594805358996382	0.0	n	5	noise	no_learn	cars	cars_55.0	71	n_5	05
11	1.0	4.028800361124013	1.0	n	5	learn	learn	faces	faces_1.0	0	n_5	05
12	2.0	5.929569491836446	1.0	n	5	learn	learn	faces	faces_2.0	1	n_5	05
13	3.0	6.465650478898169	1.0	n	5	learn	learn	faces	faces_3.0	2	n_5	05
18	4.0	3.9671394261640667	1.0	n	5	learn	learn	faces	faces_4.0	3	n_5	05
19	5.0	7.294724033177773	1.0	n	5	learn	learn	faces	faces_5.0	4	n_5	05
20	6.0	3.9735101511396347	1.0	n	5	learn	learn	faces	faces_6.0	5	n_5	05
25	7.0	2.742508765724778	1.0	n	5	learn	learn	faces	faces_7.0	6	n_5	05
26	8.0	3.905489026687064	1.0	n	5	learn	learn	faces	faces_8.0	7	n_5	05
27	9.0	3.4668251851508103	1.0	n	5	learn	learn	faces	faces_9.0	8	n_5	05
32	10.0	11.005099578540467	1.0	n	5	learn	learn	faces	faces_10.0	9	n_5	05
33	11.0	9.782998244219923	0.0	n	5	learn	learn	faces	faces_11.0	10	n_5	05
34	12.0	7.657017785919379	1.0	n	5	learn	learn	faces	faces_12.0	11	n_5	05
39	13.0	4.3574421632420135	1.0	n	5	learn	learn	faces	faces_13.0	12	n_5	05
40	14.0	6.785002822292881	0.0	n	5	learn	learn	faces	faces_14.0	13	n_5	05
41	15.0	3.0588767312110576	1.0	n	5	learn	learn	faces	faces_15.0	14	n_5	05
46	16.0	18.52539517174955	0.0	n	5	learn	learn	faces	faces_16.0	15	n_5	05
47	17.0	4.502831816022081	0.0	n	5	learn	learn	faces	faces_17.0	16	n_5	05
48	18.0	8.576495501552927	1.0	n	5	learn	learn	faces	faces_18.0	17	n_5	05
51	19.0	123.02999208623258	1.0	n	5	no_noise	no_learn	faces	faces_19.0	18	n_5	05
52	24.0	8.677896274937666	1.0	n	5	no_noise	no_learn	faces	faces_24.0	19	n_5	05
53	45.0	25.291106310713076	1.0	n	5	no_noise	no_learn	faces	faces_45.0	20	n_5	05
54	33.0	16.930593864864928	0.0	n	5	no_noise	no_learn	faces	faces_33.0	21	n_5	05
55	22.0	7.481720735977433	0.0	n	5	no_noise	no_learn	faces	faces_22.0	22	n_5	05
56	30.0	7.729743813544701	1.0	n	5	no_noise	no_learn	faces	faces_30.0	23	n_5	05
57	29.0	4.966413288322656	1.0	n	5	no_noise	no_learn	faces	faces_29.0	24	n_5	05
58	48.0	8.647591365928747	1.0	n	5	no_noise	no_learn	faces	faces_48.0	25	n_5	05
59	44.0	5.755604369956927	1.0	n	5	no_noise	no_learn	faces	faces_44.0	26	n_5	05
60	32.0	5.899109387073621	1.0	n	5	no_noise	no_learn	faces	faces_32.0	27	n_5	05
61	37.0	3.429031979645515	0.0	n	5	no_noise	no_learn	faces	faces_37.0	28	n_5	05
62	47.0	4.399799663757221	1.0	n	5	no_noise	no_learn	faces	faces_47.0	29	n_5	05
63	26.0	13.209259392078819	1.0	n	5	no_noise	no_learn	faces	faces_26.0	30	n_5	05
64	35.0	2.2025523420998065	1.0	n	5	no_noise	no_learn	faces	faces_35.0	31	n_5	05
65	38.0	2.758617517833045	1.0	n	5	no_noise	no_learn	faces	faces_38.0	32	n_5	05
66	41.0	3.476419767643165	0.0	n	5	no_noise	no_learn	faces	faces_41.0	33	n_5	05
67	23.0	4.73125687085485	1.0	n	5	no_noise	no_learn	faces	faces_23.0	34	n_5	05
68	25.0	2.7099954575860465	0.0	n	5	no_noise	no_learn	faces	faces_25.0	35	n_5	05
69	21.0	7.521258374188618	0.0	n	5	no_noise	no_learn	faces	faces_21.0	36	n_5	05
70	27.0	3.656062298736288	1.0	n	5	no_noise	no_learn	faces	faces_27.0	37	n_5	05
71	34.0	3.663221969236474	0.0	n	5	no_noise	no_learn	faces	faces_34.0	38	n_5	05
72	20.0	5.3191720245686165	0.0	n	5	no_noise	no_learn	faces	faces_20.0	39	n_5	05
73	36.0	8.571824230879429	0.0	n	5	no_noise	no_learn	faces	faces_36.0	40	n_5	05
74	40.0	4.012957427332367	1.0	n	5	no_noise	no_learn	faces	faces_40.0	41	n_5	05
75	46.0	13.98851065157578	0.0	n	5	no_noise	no_learn	faces	faces_46.0	42	n_5	05
76	42.0	2.008352206030395	0.0	n	5	no_noise	no_learn	faces	faces_42.0	43	n_5	05
77	31.0	1.5136416258519605	0.0	n	5	no_noise	no_learn	faces	faces_31.0	44	n_5	05
78	43.0	4.755481591068019	1.0	n	5	no_noise	no_learn	faces	faces_43.0	45	n_5	05
79	28.0	1.533602717505346	1.0	n	5	no_noise	no_learn	faces	faces_28.0	46	n_5	05
80	39.0	8.306554974347819	1.0	n	5	no_noise	no_learn	faces	faces_39.0	47	n_5	05
83	49.0	12.858973252436044	0.0	n	5	noise	no_learn	faces	faces_49.0	48	n_5	05
84	61.0	13.850411957610051	0.0	n	5	noise	no_learn	faces	faces_61.0	49	n_5	05
85	68.0	8.651347265293225	0.0	n	5	noise	no_learn	faces	faces_68.0	50	n_5	05
86	59.0	4.435882474266691	1.0	n	5	noise	no_learn	faces	faces_59.0	51	n_5	05
87	57.0	5.837058234066718	0.0	n	5	noise	no_learn	faces	faces_57.0	52	n_5	05
88	56.0	3.3844008410560487	1.0	n	5	noise	no_learn	faces	faces_56.0	53	n_5	05
89	58.0	4.4583708659884005	1.0	n	5	noise	no_learn	faces	faces_58.0	54	n_5	05
90	51.0	3.988992852486263	0.0	n	5	noise	no_learn	faces	faces_51.0	55	n_5	05
91	72.0	4.920342435585552	0.0	n	5	noise	no_learn	faces	faces_72.0	56	n_5	05
92	66.0	10.122472953189572	1.0	n	5	noise	no_learn	faces	faces_66.0	57	n_5	05
93	60.0	3.661228737068086	0.0	n	5	noise	no_learn	faces	faces_60.0	58	n_5	05
94	71.0	4.515437115125677	0.0	n	5	noise	no_learn	faces	faces_71.0	59	n_5	05
95	62.0	4.0777603672177065	0.0	n	5	noise	no_learn	faces	faces_62.0	60	n_5	05
96	53.0	5.195863121396542	0.0	n	5	noise	no_learn	faces	faces_53.0	61	n_5	05
97	65.0	2.3647983610044316	1.0	n	5	noise	no_learn	faces	faces_65.0	62	n_5	05
98	63.0	3.0583353695183177	1.0	n	5	noise	no_learn	faces	faces_63.0	63	n_5	05
99	50.0	4.4628472302429145	0.0	n	5	noise	no_learn	faces	faces_50.0	64	n_5	05
100	67.0	3.878764560746277	1.0	n	5	noise	no_learn	faces	faces_67.0	65	n_5	05
101	70.0	7.269938095938414	1.0	n	5	noise	no_learn	faces	faces_70.0	66	n_5	05
102	64.0	7.961351799602197	0.0	n	5	noise	no_learn	faces	faces_64.0	67	n_5	05
103	69.0	7.6405350241966525	0.0	n	5	noise	no_learn	faces	faces_69.0	68	n_5	05
104	54.0	2.201186376325495	0.0	n	5	noise	no_learn	faces	faces_54.0	69	n_5	05
105	52.0	8.885600062563752	0.0	n	5	noise	no_learn	faces	faces_52.0	70	n_5	05
106	55.0	7.294023018406732	0.0	n	5	noise	no_learn	faces	faces_55.0	71	n_5	05
11	1.0	9.072650185669774	1.0	y	1	no_noise	learn	bikes	bikes_1.0	0	y_1	06
12	2.0	15.015963938909408	0.0	y	1	no_noise	learn	bikes	bikes_2.0	1	y_1	06
13	3.0	4.262545931378553	1.0	y	1	no_noise	learn	bikes	bikes_3.0	2	y_1	06
18	4.0	2.852547925045656	1.0	y	1	no_noise	learn	bikes	bikes_4.0	3	y_1	06
19	5.0	3.1320023567459434	1.0	y	1	no_noise	learn	bikes	bikes_5.0	4	y_1	06
20	6.0	5.798192893140367	1.0	y	1	no_noise	learn	bikes	bikes_6.0	5	y_1	06
25	7.0	3.317209738823294	1.0	y	1	no_noise	learn	bikes	bikes_7.0	6	y_1	06
26	8.0	2.5795814267912647	1.0	y	1	no_noise	learn	bikes	bikes_8.0	7	y_1	06
27	9.0	2.928700808653957	1.0	y	1	no_noise	learn	bikes	bikes_9.0	8	y_1	06
32	10.0	4.015097989635252	1.0	y	1	no_noise	learn	bikes	bikes_10.0	9	y_1	06
33	11.0	2.761801952496171	1.0	y	1	no_noise	learn	bikes	bikes_11.0	10	y_1	06
34	12.0	3.184995048242853	1.0	y	1	no_noise	learn	bikes	bikes_12.0	11	y_1	06
39	13.0	3.2974845733770053	1.0	y	1	no_noise	learn	bikes	bikes_13.0	12	y_1	06
40	14.0	1.7986280964687469	1.0	y	1	no_noise	learn	bikes	bikes_14.0	13	y_1	06
41	15.0	2.50302129983902	1.0	y	1	no_noise	learn	bikes	bikes_15.0	14	y_1	06
46	16.0	2.1241273646446643	1.0	y	1	no_noise	learn	bikes	bikes_16.0	15	y_1	06
47	17.0	2.0098986470547966	1.0	y	1	no_noise	learn	bikes	bikes_17.0	16	y_1	06
48	18.0	3.0130714981496567	1.0	y	1	no_noise	learn	bikes	bikes_18.0	17	y_1	06
51	19.0	9.13883310397796	0.0	y	1	no_noise	no_learn	bikes	bikes_19.0	18	y_1	06
52	46.0	5.447987123814528	0.0	y	1	no_noise	no_learn	bikes	bikes_46.0	19	y_1	06
53	36.0	3.9971792826981978	0.0	y	1	no_noise	no_learn	bikes	bikes_36.0	20	y_1	06
54	31.0	1.9646225077158304	0.0	y	1	no_noise	no_learn	bikes	bikes_31.0	21	y_1	06
55	30.0	2.8343095016971347	0.0	y	1	no_noise	no_learn	bikes	bikes_30.0	22	y_1	06
56	43.0	2.8628943371732016	0.0	y	1	no_noise	no_learn	bikes	bikes_43.0	23	y_1	06
57	21.0	4.687785779467959	1.0	y	1	no_noise	no_learn	bikes	bikes_21.0	24	y_1	06
58	25.0	4.261511411728861	0.0	y	1	no_noise	no_learn	bikes	bikes_25.0	25	y_1	06
59	48.0	1.5407231182907708	0.0	y	1	no_noise	no_learn	bikes	bikes_48.0	26	y_1	06
60	27.0	4.975170312813134	1.0	y	1	no_noise	no_learn	bikes	bikes_27.0	27	y_1	06
61	40.0	1.4410218444463683	1.0	y	1	no_noise	no_learn	bikes	bikes_40.0	28	y_1	06
62	29.0	1.3367663339013234	0.0	y	1	no_noise	no_learn	bikes	bikes_29.0	29	y_1	06
63	47.0	3.9229880558195873	0.0	y	1	no_noise	no_learn	bikes	bikes_47.0	30	y_1	06
64	37.0	4.408830980639323	0.0	y	1	no_noise	no_learn	bikes	bikes_37.0	31	y_1	06
65	33.0	3.295811026124284	1.0	y	1	no_noise	no_learn	bikes	bikes_33.0	32	y_1	06
66	20.0	2.1447788567384123	1.0	y	1	no_noise	no_learn	bikes	bikes_20.0	33	y_1	06
67	39.0	1.9187312485664731	0.0	y	1	no_noise	no_learn	bikes	bikes_39.0	34	y_1	06
68	42.0	1.6141087732758024	0.0	y	1	no_noise	no_learn	bikes	bikes_42.0	35	y_1	06
69	26.0	1.4428056108008604	0.0	y	1	no_noise	no_learn	bikes	bikes_26.0	36	y_1	06
70	32.0	1.4453009386488702	1.0	y	1	no_noise	no_learn	bikes	bikes_32.0	37	y_1	06
71	41.0	3.6026897510819254	1.0	y	1	no_noise	no_learn	bikes	bikes_41.0	38	y_1	06
72	34.0	2.5543436858206405	0.0	y	1	no_noise	no_learn	bikes	bikes_34.0	39	y_1	06
73	35.0	8.942464823092449	1.0	y	1	no_noise	no_learn	bikes	bikes_35.0	40	y_1	06
74	23.0	3.1053990336367865	1.0	y	1	no_noise	no_learn	bikes	bikes_23.0	41	y_1	06
75	28.0	2.8528182049485618	0.0	y	1	no_noise	no_learn	bikes	bikes_28.0	42	y_1	06
76	22.0	1.2961323634008295	0.0	y	1	no_noise	no_learn	bikes	bikes_22.0	43	y_1	06
77	44.0	1.2366736201947788	1.0	y	1	no_noise	no_learn	bikes	bikes_44.0	44	y_1	06
78	45.0	1.7355795336115991	1.0	y	1	no_noise	no_learn	bikes	bikes_45.0	45	y_1	06
79	38.0	1.1339149821797037	0.0	y	1	no_noise	no_learn	bikes	bikes_38.0	46	y_1	06
80	24.0	1.1936342800836428	1.0	y	1	no_noise	no_learn	bikes	bikes_24.0	47	y_1	06
83	49.0	4.67873403646081	1.0	y	1	noise	no_learn	bikes	bikes_49.0	48	y_1	06
84	66.0	5.0340982214256655	0.0	y	1	noise	no_learn	bikes	bikes_66.0	49	y_1	06
85	65.0	9.111287245541464	1.0	y	1	noise	no_learn	bikes	bikes_65.0	50	y_1	06
86	54.0	3.0307896225494915	1.0	y	1	noise	no_learn	bikes	bikes_54.0	51	y_1	06
87	59.0	1.803317270518164	1.0	y	1	noise	no_learn	bikes	bikes_59.0	52	y_1	06
88	55.0	8.310266341191891	0.0	y	1	noise	no_learn	bikes	bikes_55.0	53	y_1	06
89	51.0	3.0676680395481526	0.0	y	1	noise	no_learn	bikes	bikes_51.0	54	y_1	06
90	52.0	4.590690457778692	0.0	y	1	noise	no_learn	bikes	bikes_52.0	55	y_1	06
91	64.0	3.40061641648208	0.0	y	1	noise	no_learn	bikes	bikes_64.0	56	y_1	06
92	69.0	6.187126896213157	0.0	y	1	noise	no_learn	bikes	bikes_69.0	57	y_1	06
93	60.0	2.246110724801838	0.0	y	1	noise	no_learn	bikes	bikes_60.0	58	y_1	06
94	57.0	1.8137200078490423	0.0	y	1	noise	no_learn	bikes	bikes_57.0	59	y_1	06
95	53.0	4.275130763606286	1.0	y	1	noise	no_learn	bikes	bikes_53.0	60	y_1	06
96	58.0	2.0384048703926965	1.0	y	1	noise	no_learn	bikes	bikes_58.0	61	y_1	06
97	68.0	7.745189665991348	0.0	y	1	noise	no_learn	bikes	bikes_68.0	62	y_1	06
98	61.0	11.234448572264226	1.0	y	1	noise	no_learn	bikes	bikes_61.0	63	y_1	06
99	63.0	2.5373229403194277	1.0	y	1	noise	no_learn	bikes	bikes_63.0	64	y_1	06
100	56.0	6.176308405993041	1.0	y	1	noise	no_learn	bikes	bikes_56.0	65	y_1	06
101	62.0	7.654260940456879	1.0	y	1	noise	no_learn	bikes	bikes_62.0	66	y_1	06
102	71.0	6.232430185118574	0.0	y	1	noise	no_learn	bikes	bikes_71.0	67	y_1	06
103	67.0	2.6826674803451165	1.0	y	1	noise	no_learn	bikes	bikes_67.0	68	y_1	06
104	70.0	2.171169035565981	1.0	y	1	noise	no_learn	bikes	bikes_70.0	69	y_1	06
105	72.0	1.8938727909626325	0.0	y	1	noise	no_learn	bikes	bikes_72.0	70	y_1	06
106	50.0	2.8471998677341617	0.0	y	1	noise	no_learn	bikes	bikes_50.0	71	y_1	06
11	1.0	3.9676126058184313	1.0	y	1	learn	learn	cars	cars_1.0	0	y_1	06
12	2.0	2.7169342721463186	1.0	y	1	learn	learn	cars	cars_2.0	1	y_1	06
13	3.0	5.9456745489515015	0.0	y	1	learn	learn	cars	cars_3.0	2	y_1	06
18	4.0	5.816862062420113	1.0	y	1	learn	learn	cars	cars_4.0	3	y_1	06
19	5.0	5.766784503837697	1.0	y	1	learn	learn	cars	cars_5.0	4	y_1	06
20	6.0	4.388989517843584	1.0	y	1	learn	learn	cars	cars_6.0	5	y_1	06
25	7.0	11.141364901377528	1.0	y	1	learn	learn	cars	cars_7.0	6	y_1	06
26	8.0	10.445744246324466	1.0	y	1	learn	learn	cars	cars_8.0	7	y_1	06
27	9.0	6.507018768046692	1.0	y	1	learn	learn	cars	cars_9.0	8	y_1	06
32	10.0	6.130586932878941	1.0	y	1	learn	learn	cars	cars_10.0	9	y_1	06
33	11.0	6.466191103696474	1.0	y	1	learn	learn	cars	cars_11.0	10	y_1	06
34	12.0	5.8011781286477335	1.0	y	1	learn	learn	cars	cars_12.0	11	y_1	06
39	13.0	7.260296975618986	1.0	y	1	learn	learn	cars	cars_13.0	12	y_1	06
40	14.0	2.3857992424018453	1.0	y	1	learn	learn	cars	cars_14.0	13	y_1	06
41	15.0	6.657798487074615	1.0	y	1	learn	learn	cars	cars_15.0	14	y_1	06
46	16.0	4.297613027243642	1.0	y	1	learn	learn	cars	cars_16.0	15	y_1	06
47	17.0	7.242568720794225	1.0	y	1	learn	learn	cars	cars_17.0	16	y_1	06
48	18.0	6.499667721851437	1.0	y	1	learn	learn	cars	cars_18.0	17	y_1	06
51	19.0	7.817927783798949	0.0	y	1	no_noise	no_learn	cars	cars_19.0	18	y_1	06
52	46.0	4.765993519766198	1.0	y	1	no_noise	no_learn	cars	cars_46.0	19	y_1	06
53	36.0	2.8605760892678522	0.0	y	1	no_noise	no_learn	cars	cars_36.0	20	y_1	06
54	31.0	3.679362933638913	0.0	y	1	no_noise	no_learn	cars	cars_31.0	21	y_1	06
55	30.0	7.212403943245589	0.0	y	1	no_noise	no_learn	cars	cars_30.0	22	y_1	06
56	43.0	2.3433486829599133	1.0	y	1	no_noise	no_learn	cars	cars_43.0	23	y_1	06
57	21.0	4.7433114840241615	0.0	y	1	no_noise	no_learn	cars	cars_21.0	24	y_1	06
58	25.0	3.0695081310914247	1.0	y	1	no_noise	no_learn	cars	cars_25.0	25	y_1	06
59	48.0	2.279545200362918	1.0	y	1	no_noise	no_learn	cars	cars_48.0	26	y_1	06
60	27.0	3.496611573333212	0.0	y	1	no_noise	no_learn	cars	cars_27.0	27	y_1	06
61	40.0	4.121283955180844	1.0	y	1	no_noise	no_learn	cars	cars_40.0	28	y_1	06
62	29.0	3.4170730995756458	1.0	y	1	no_noise	no_learn	cars	cars_29.0	29	y_1	06
63	47.0	2.4357378114727912	0.0	y	1	no_noise	no_learn	cars	cars_47.0	30	y_1	06
64	37.0	4.78600314772484	0.0	y	1	no_noise	no_learn	cars	cars_37.0	31	y_1	06
65	33.0	9.64378080664028	1.0	y	1	no_noise	no_learn	cars	cars_33.0	32	y_1	06
66	20.0	2.4907918431417784	1.0	y	1	no_noise	no_learn	cars	cars_20.0	33	y_1	06
67	39.0	2.4422516788181383	0.0	y	1	no_noise	no_learn	cars	cars_39.0	34	y_1	06
68	42.0	5.271974931638397	1.0	y	1	no_noise	no_learn	cars	cars_42.0	35	y_1	06
69	26.0	5.860698059659627	0.0	y	1	no_noise	no_learn	cars	cars_26.0	36	y_1	06
70	32.0	1.4590576591726858	1.0	y	1	no_noise	no_learn	cars	cars_32.0	37	y_1	06
71	41.0	1.8656846631783992	0.0	y	1	no_noise	no_learn	cars	cars_41.0	38	y_1	06
72	34.0	3.3344829346824554	0.0	y	1	no_noise	no_learn	cars	cars_34.0	39	y_1	06
73	35.0	2.1352201869522105	1.0	y	1	no_noise	no_learn	cars	cars_35.0	40	y_1	06
74	23.0	3.271282820569468	1.0	y	1	no_noise	no_learn	cars	cars_23.0	41	y_1	06
75	28.0	1.986522068938939	0.0	y	1	no_noise	no_learn	cars	cars_28.0	42	y_1	06
76	22.0	1.8146276944971762	1.0	y	1	no_noise	no_learn	cars	cars_22.0	43	y_1	06
77	44.0	2.169745507359039	0.0	y	1	no_noise	no_learn	cars	cars_44.0	44	y_1	06
78	45.0	2.1131066710076998	0.0	y	1	no_noise	no_learn	cars	cars_45.0	45	y_1	06
79	38.0	2.834555468565668	0.0	y	1	no_noise	no_learn	cars	cars_38.0	46	y_1	06
80	24.0	3.4170054282949422	1.0	y	1	no_noise	no_learn	cars	cars_24.0	47	y_1	06
83	49.0	8.295487662755477	1.0	y	1	noise	no_learn	cars	cars_49.0	48	y_1	06
84	66.0	6.4745008939135005	1.0	y	1	noise	no_learn	cars	cars_66.0	49	y_1	06
85	65.0	2.5509730887133633	0.0	y	1	noise	no_learn	cars	cars_65.0	50	y_1	06
86	54.0	4.514523796788127	1.0	y	1	noise	no_learn	cars	cars_54.0	51	y_1	06
87	59.0	4.097807693615323	1.0	y	1	noise	no_learn	cars	cars_59.0	52	y_1	06
88	55.0	4.293372428699513	1.0	y	1	noise	no_learn	cars	cars_55.0	53	y_1	06
89	51.0	7.09969195384474	1.0	y	1	noise	no_learn	cars	cars_51.0	54	y_1	06
90	52.0	5.42030713846907	1.0	y	1	noise	no_learn	cars	cars_52.0	55	y_1	06
91	64.0	4.982931033649948	0.0	y	1	noise	no_learn	cars	cars_64.0	56	y_1	06
92	69.0	5.0840971678553615	0.0	y	1	noise	no_learn	cars	cars_69.0	57	y_1	06
93	60.0	3.2973581455953536	1.0	y	1	noise	no_learn	cars	cars_60.0	58	y_1	06
94	57.0	8.566790744189348	1.0	y	1	noise	no_learn	cars	cars_57.0	59	y_1	06
95	53.0	3.0975175580606447	1.0	y	1	noise	no_learn	cars	cars_53.0	60	y_1	06
96	58.0	4.2185223185588265	1.0	y	1	noise	no_learn	cars	cars_58.0	61	y_1	06
97	68.0	6.8410259776646845	0.0	y	1	noise	no_learn	cars	cars_68.0	62	y_1	06
98	61.0	6.894115516093733	1.0	y	1	noise	no_learn	cars	cars_61.0	63	y_1	06
99	63.0	2.7408242605160917	1.0	y	1	noise	no_learn	cars	cars_63.0	64	y_1	06
100	56.0	2.0357365147792734	1.0	y	1	noise	no_learn	cars	cars_56.0	65	y_1	06
101	62.0	2.8524069094346487	0.0	y	1	noise	no_learn	cars	cars_62.0	66	y_1	06
102	71.0	5.531991496922274	0.0	y	1	noise	no_learn	cars	cars_71.0	67	y_1	06
103	67.0	7.807934721116908	0.0	y	1	noise	no_learn	cars	cars_67.0	68	y_1	06
104	70.0	4.253365734504769	1.0	y	1	noise	no_learn	cars	cars_70.0	69	y_1	06
105	72.0	9.028017531316435	1.0	y	1	noise	no_learn	cars	cars_72.0	70	y_1	06
106	50.0	3.7507597823496326	1.0	y	1	noise	no_learn	cars	cars_50.0	71	y_1	06
11	1.0	3.2507460049600923	1.0	y	1	learn	learn	faces	faces_1.0	0	y_1	06
12	2.0	2.8963101727349567	1.0	y	1	learn	learn	faces	faces_2.0	1	y_1	06
13	3.0	2.28558617917588	1.0	y	1	learn	learn	faces	faces_3.0	2	y_1	06
18	4.0	2.77324488251179	1.0	y	1	learn	learn	faces	faces_4.0	3	y_1	06
19	5.0	2.9897095078558777	1.0	y	1	learn	learn	faces	faces_5.0	4	y_1	06
20	6.0	2.6958876932258136	1.0	y	1	learn	learn	faces	faces_6.0	5	y_1	06
25	7.0	3.075972156708304	1.0	y	1	learn	learn	faces	faces_7.0	6	y_1	06
26	8.0	1.8174411178843	1.0	y	1	learn	learn	faces	faces_8.0	7	y_1	06
27	9.0	1.942497645686672	1.0	y	1	learn	learn	faces	faces_9.0	8	y_1	06
32	10.0	2.8778760294590033	1.0	y	1	learn	learn	faces	faces_10.0	9	y_1	06
33	11.0	2.9365851207476226	1.0	y	1	learn	learn	faces	faces_11.0	10	y_1	06
34	12.0	3.0129086008237214	1.0	y	1	learn	learn	faces	faces_12.0	11	y_1	06
39	13.0	3.9170289308895008	1.0	y	1	learn	learn	faces	faces_13.0	12	y_1	06
40	14.0	2.89444657858985	1.0	y	1	learn	learn	faces	faces_14.0	13	y_1	06
41	15.0	2.28580783301004	1.0	y	1	learn	learn	faces	faces_15.0	14	y_1	06
46	16.0	2.85416190536489	1.0	y	1	learn	learn	faces	faces_16.0	15	y_1	06
47	17.0	4.057790058563114	1.0	y	1	learn	learn	faces	faces_17.0	16	y_1	06
48	18.0	2.187312080495758	1.0	y	1	learn	learn	faces	faces_18.0	17	y_1	06
51	19.0	10.660276390583023	1.0	y	1	no_noise	no_learn	faces	faces_19.0	18	y_1	06
52	46.0	9.916009404281798	0.0	y	1	no_noise	no_learn	faces	faces_46.0	19	y_1	06
53	36.0	8.975675213507202	0.0	y	1	no_noise	no_learn	faces	faces_36.0	20	y_1	06
54	31.0	3.3852120826049936	0.0	y	1	no_noise	no_learn	faces	faces_31.0	21	y_1	06
55	30.0	10.47354174467182	1.0	y	1	no_noise	no_learn	faces	faces_30.0	22	y_1	06
56	43.0	3.224899627683044	1.0	y	1	no_noise	no_learn	faces	faces_43.0	23	y_1	06
57	21.0	4.109868579937029	1.0	y	1	no_noise	no_learn	faces	faces_21.0	24	y_1	06
58	25.0	4.160403628804488	0.0	y	1	no_noise	no_learn	faces	faces_25.0	25	y_1	06
59	48.0	4.991526502017223	1.0	y	1	no_noise	no_learn	faces	faces_48.0	26	y_1	06
60	27.0	4.854457308741986	1.0	y	1	no_noise	no_learn	faces	faces_27.0	27	y_1	06
61	40.0	3.687624097779917	1.0	y	1	no_noise	no_learn	faces	faces_40.0	28	y_1	06
62	29.0	3.302292070868134	0.0	y	1	no_noise	no_learn	faces	faces_29.0	29	y_1	06
63	47.0	3.5730371681493125	1.0	y	1	no_noise	no_learn	faces	faces_47.0	30	y_1	06
64	37.0	2.255435989449325	1.0	y	1	no_noise	no_learn	faces	faces_37.0	31	y_1	06
65	33.0	4.617521918196871	0.0	y	1	no_noise	no_learn	faces	faces_33.0	32	y_1	06
66	20.0	3.4451112969763926	0.0	y	1	no_noise	no_learn	faces	faces_20.0	33	y_1	06
67	39.0	2.1295516027967096	1.0	y	1	no_noise	no_learn	faces	faces_39.0	34	y_1	06
68	42.0	2.052095135280979	1.0	y	1	no_noise	no_learn	faces	faces_42.0	35	y_1	06
69	26.0	2.456093900182168	1.0	y	1	no_noise	no_learn	faces	faces_26.0	36	y_1	06
70	32.0	3.5673114483579416	0.0	y	1	no_noise	no_learn	faces	faces_32.0	37	y_1	06
71	41.0	4.778755431936587	0.0	y	1	no_noise	no_learn	faces	faces_41.0	38	y_1	06
72	34.0	2.128220464117476	1.0	y	1	no_noise	no_learn	faces	faces_34.0	39	y_1	06
73	35.0	4.758723517021281	1.0	y	1	no_noise	no_learn	faces	faces_35.0	40	y_1	06
74	23.0	3.250429125066148	1.0	y	1	no_noise	no_learn	faces	faces_23.0	41	y_1	06
75	28.0	3.7375857642327897	0.0	y	1	no_noise	no_learn	faces	faces_28.0	42	y_1	06
76	22.0	2.8380249386900687	1.0	y	1	no_noise	no_learn	faces	faces_22.0	43	y_1	06
77	44.0	4.064453045859409	0.0	y	1	no_noise	no_learn	faces	faces_44.0	44	y_1	06
78	45.0	4.8760768648498924	1.0	y	1	no_noise	no_learn	faces	faces_45.0	45	y_1	06
79	38.0	5.124062935101391	0.0	y	1	no_noise	no_learn	faces	faces_38.0	46	y_1	06
80	24.0	2.455342222179752	0.0	y	1	no_noise	no_learn	faces	faces_24.0	47	y_1	06
83	49.0	14.636450426536612	1.0	y	1	noise	no_learn	faces	faces_49.0	48	y_1	06
84	66.0	3.1997473875599103	1.0	y	1	noise	no_learn	faces	faces_66.0	49	y_1	06
85	65.0	2.2695865811547264	0.0	y	1	noise	no_learn	faces	faces_65.0	50	y_1	06
86	54.0	5.916387877194212	1.0	y	1	noise	no_learn	faces	faces_54.0	51	y_1	06
87	59.0	3.5989500010546185	0.0	y	1	noise	no_learn	faces	faces_59.0	52	y_1	06
88	55.0	4.753222692816053	1.0	y	1	noise	no_learn	faces	faces_55.0	53	y_1	06
89	51.0	5.433503848755208	1.0	y	1	noise	no_learn	faces	faces_51.0	54	y_1	06
90	52.0	2.9222866247509955	0.0	y	1	noise	no_learn	faces	faces_52.0	55	y_1	06
91	64.0	2.798665376460121	0.0	y	1	noise	no_learn	faces	faces_64.0	56	y_1	06
92	69.0	3.7824712741494295	1.0	y	1	noise	no_learn	faces	faces_69.0	57	y_1	06
93	60.0	2.7099847962454082	0.0	y	1	noise	no_learn	faces	faces_60.0	58	y_1	06
94	57.0	4.622368316551729	0.0	y	1	noise	no_learn	faces	faces_57.0	59	y_1	06
95	53.0	4.163678189419444	1.0	y	1	noise	no_learn	faces	faces_53.0	60	y_1	06
96	58.0	3.1392942412203415	0.0	y	1	noise	no_learn	faces	faces_58.0	61	y_1	06
97	68.0	4.307215865715989	0.0	y	1	noise	no_learn	faces	faces_68.0	62	y_1	06
98	61.0	2.9034610416056235	0.0	y	1	noise	no_learn	faces	faces_61.0	63	y_1	06
99	63.0	4.42415062411601	0.0	y	1	noise	no_learn	faces	faces_63.0	64	y_1	06
100	56.0	2.676314484247996	1.0	y	1	noise	no_learn	faces	faces_56.0	65	y_1	06
101	62.0	3.2130109586942126	0.0	y	1	noise	no_learn	faces	faces_62.0	66	y_1	06
102	71.0	3.005113031300425	0.0	y	1	noise	no_learn	faces	faces_71.0	67	y_1	06
103	67.0	3.3884363962861244	0.0	y	1	noise	no_learn	faces	faces_67.0	68	y_1	06
104	70.0	4.419233312750293	1.0	y	1	noise	no_learn	faces	faces_70.0	69	y_1	06
105	72.0	3.010072485267301	1.0	y	1	noise	no_learn	faces	faces_72.0	70	y_1	06
106	50.0	3.89036077302444	0.0	y	1	noise	no_learn	faces	faces_50.0	71	y_1	06
11	1.0	8.522852226989926	1.0	n	1	no_noise	learn	bikes	bikes_1.0	0	n_1	07
12	2.0	14.063407990557609	1.0	n	1	no_noise	learn	bikes	bikes_2.0	1	n_1	07
13	3.0	5.049817814317067	1.0	n	1	no_noise	learn	bikes	bikes_3.0	2	n_1	07
18	4.0	6.094845960717066	1.0	n	1	no_noise	learn	bikes	bikes_4.0	3	n_1	07
19	5.0	9.668791220727144	1.0	n	1	no_noise	learn	bikes	bikes_5.0	4	n_1	07
20	6.0	4.551273354707519	1.0	n	1	no_noise	learn	bikes	bikes_6.0	5	n_1	07
25	7.0	6.098101881347247	1.0	n	1	no_noise	learn	bikes	bikes_7.0	6	n_1	07
26	8.0	4.316366076513076	1.0	n	1	no_noise	learn	bikes	bikes_8.0	7	n_1	07
27	9.0	6.7121932302834475	1.0	n	1	no_noise	learn	bikes	bikes_9.0	8	n_1	07
32	10.0	3.4677345762174814	1.0	n	1	no_noise	learn	bikes	bikes_10.0	9	n_1	07
33	11.0	3.933900961652398	1.0	n	1	no_noise	learn	bikes	bikes_11.0	10	n_1	07
34	12.0	2.5951498736540093	1.0	n	1	no_noise	learn	bikes	bikes_12.0	11	n_1	07
39	13.0	5.872365074799745	1.0	n	1	no_noise	learn	bikes	bikes_13.0	12	n_1	07
40	14.0	7.016302700518281	1.0	n	1	no_noise	learn	bikes	bikes_14.0	13	n_1	07
41	15.0	6.801005100875045	1.0	n	1	no_noise	learn	bikes	bikes_15.0	14	n_1	07
46	16.0	5.782310402908479	1.0	n	1	no_noise	learn	bikes	bikes_16.0	15	n_1	07
47	17.0	2.9815524845471373	1.0	n	1	no_noise	learn	bikes	bikes_17.0	16	n_1	07
48	18.0	4.196831849418231	1.0	n	1	no_noise	learn	bikes	bikes_18.0	17	n_1	07
